participantID,trialNumber,response,correctness,startTimestamp,endTimestamp,reactionTime,sampleNumber,sampleOrder,sampleTime,comparisonTime,condition
1,1,left,True,2024-06-24 10:14:47.089,2024-06-24 10:14:56.953,9.864,16,left,12000,24000,VH
1,2,right,False,2024-06-24 10:15:19.039,2024-06-24 10:15:30.269,11.23,18,left,12000,24000,VH
1,3,right,True,2024-06-24 10:15:52.371,2024-06-24 10:15:57.769,5.398,56,right,12000,24000,VH
1,4,left,True,2024-06-24 10:16:19.871,2024-06-24 10:16:28.519,8.648,90,left,12000,24000,VH
1,5,left,True,2024-06-24 10:16:50.622,2024-06-24 10:16:54.719,4.097,80,left,12000,24000,VH
1,6,right,True,2024-06-24 10:17:16.822,2024-06-24 10:17:23.869,7.047,8,right,12000,24000,VH
1,7,left,True,2024-06-24 10:17:45.971,2024-06-24 10:17:53.569,7.598,72,left,12000,24000,VH
1,8,right,False,2024-06-24 10:18:15.671,2024-06-24 10:18:23.353,7.682,66,left,12000,24000,VH
1,9,right,True,2024-06-24 10:18:45.456,2024-06-24 10:18:52.853,7.397,84,right,12000,24000,VH
1,10,left,True,2024-06-24 10:19:14.955,2024-06-24 10:19:25.303,10.348,94,left,12000,24000,VH
1,11,left,True,2024-06-24 10:19:47.405,2024-06-24 10:19:56.786,9.381,92,left,12000,24000,VH
1,12,left,False,2024-06-24 10:20:18.890,2024-06-24 10:20:31.236,12.346,6,right,12000,24000,VH
1,13,right,False,2024-06-24 10:20:53.305,2024-06-24 10:21:08.369,15.064,1,left,12000,24000,V
1,14,right,False,2024-06-24 10:21:30.470,2024-06-24 10:21:43.970,13.5,33,left,12000,24000,V
1,15,right,True,2024-06-24 10:22:06.050,2024-06-24 10:22:16.120,10.07,69,right,12000,24000,V
1,16,left,True,2024-06-24 10:22:38.200,2024-06-24 10:22:47.220,9.02,9,left,12000,24000,V
1,17,left,True,2024-06-24 10:23:09.317,2024-06-24 10:23:19.953,10.636,5,left,12000,24000,V
1,18,left,False,2024-06-24 10:23:42.051,2024-06-24 10:23:53.636,11.585,61,right,12000,24000,V
1,19,left,False,2024-06-24 10:24:15.716,2024-06-24 10:24:27.487,11.771,71,right,12000,24000,V
1,20,left,True,2024-06-24 10:24:49.569,2024-06-24 10:24:58.070,8.501,93,left,12000,24000,V
1,21,right,True,2024-06-24 10:25:20.140,2024-06-24 10:25:30.253,10.113,75,right,12000,24000,V
1,22,right,True,2024-06-24 10:25:52.333,2024-06-24 10:26:02.937,10.604,53,right,12000,24000,V
1,23,left,True,2024-06-24 10:26:25.008,2024-06-24 10:26:39.387,14.379,25,left,12000,24000,V
1,24,right,True,2024-06-24 10:27:01.485,2024-06-24 10:27:12.170,10.685,11,right,12000,24000,V
1,25,left,False,2024-06-24 10:34:12.817,2024-06-24 10:34:25.471,12.654,77,right,12000,24000,V
1,26,left,True,2024-06-24 10:34:47.569,2024-06-24 10:34:59.471,11.902,41,left,12000,24000,V
1,27,right,True,2024-06-24 10:35:21.550,2024-06-24 10:35:28.421,6.871,95,right,12000,24000,V
1,28,right,True,2024-06-24 10:35:50.518,2024-06-24 10:35:58.888,8.37,17,right,12000,24000,V
1,29,left,True,2024-06-24 10:36:20.969,2024-06-24 10:36:27.038,6.069,51,left,12000,24000,V
1,30,right,True,2024-06-24 10:36:49.134,2024-06-24 10:36:56.538,7.404,83,right,12000,24000,V
1,31,right,True,2024-06-24 10:37:18.637,2024-06-24 10:37:22.722,4.085,31,right,12000,24000,V
1,32,left,True,2024-06-24 10:37:44.818,2024-06-24 10:37:49.555,4.737,63,left,12000,24000,V
1,33,right,True,2024-06-24 10:38:11.634,2024-06-24 10:38:20.705,9.071,85,right,12000,24000,V
1,34,right,True,2024-06-24 10:38:42.802,2024-06-24 10:38:49.838,7.036,47,right,12000,24000,V
1,35,left,True,2024-06-24 10:39:11.909,2024-06-24 10:39:19.555,7.646,19,left,12000,24000,V
1,36,right,False,2024-06-24 10:39:41.625,2024-06-24 10:39:50.538,8.913,23,left,12000,24000,V
1,37,right,True,2024-06-24 10:40:12.641,2024-06-24 10:40:18.788,6.147,58,right,12000,24000,VH
1,38,left,True,2024-06-24 10:40:40.892,2024-06-24 10:40:47.088,6.196,82,left,12000,24000,VH
1,39,right,True,2024-06-24 10:41:09.193,2024-06-24 10:41:13.972,4.779,46,right,12000,24000,VH
1,40,right,True,2024-06-24 10:41:36.077,2024-06-24 10:41:45.255,9.178,30,right,12000,24000,VH
1,41,left,True,2024-06-24 10:42:07.358,2024-06-24 10:42:14.872,7.514,52,left,12000,24000,VH
1,42,right,True,2024-06-24 10:42:36.976,2024-06-24 10:42:44.106,7.13,4,right,12000,24000,VH
1,43,right,True,2024-06-24 10:43:06.210,2024-06-24 10:43:18.689,12.479,48,right,12000,24000,VH
1,44,left,True,2024-06-24 10:43:40.791,2024-06-24 10:43:48.822,8.031,70,left,12000,24000,VH
1,45,left,True,2024-06-24 10:44:10.926,2024-06-24 10:44:19.239,8.313,88,left,12000,24000,VH
1,46,right,True,2024-06-24 10:44:41.341,2024-06-24 10:44:49.756,8.415,60,right,12000,24000,VH
1,47,right,True,2024-06-24 10:45:11.860,2024-06-24 10:45:19.506,7.646,12,right,12000,24000,VH
1,48,left,True,2024-06-24 10:45:41.610,2024-06-24 10:45:46.756,5.146,40,left,12000,24000,VH
1,49,right,True,2024-06-24 10:55:27.727,2024-06-24 10:55:36.157,8.43,22,right,12000,24000,VH
1,50,right,True,2024-06-24 10:55:58.259,2024-06-24 10:56:03.423,5.164,68,right,12000,24000,VH
1,51,left,True,2024-06-24 10:56:25.527,2024-06-24 10:56:30.440,4.913,10,left,12000,24000,VH
1,52,right,True,2024-06-24 10:56:52.543,2024-06-24 10:56:58.473,5.93,20,right,12000,24000,VH
1,53,left,True,2024-06-24 10:57:20.579,2024-06-24 10:57:25.157,4.578,36,left,12000,24000,VH
1,54,left,True,2024-06-24 10:57:47.261,2024-06-24 10:57:53.240,5.979,2,left,12000,24000,VH
1,55,right,True,2024-06-24 10:58:15.344,2024-06-24 10:58:20.224,4.88,44,right,12000,24000,VH
1,56,left,True,2024-06-24 10:58:42.327,2024-06-24 10:58:46.107,3.78,32,left,12000,24000,VH
1,57,left,True,2024-06-24 10:59:08.210,2024-06-24 10:59:15.357,7.147,24,left,12000,24000,VH
1,58,right,True,2024-06-24 10:59:37.461,2024-06-24 10:59:40.674,3.213,26,right,12000,24000,VH
1,59,left,True,2024-06-24 11:00:02.777,2024-06-24 11:00:05.107,2.33,78,left,12000,24000,VH
1,60,left,True,2024-06-24 11:00:27.209,2024-06-24 11:00:30.441,3.232,50,left,12000,24000,VH
1,61,right,True,2024-06-24 11:00:52.538,2024-06-24 11:00:58.274,5.736,3,right,12000,24000,V
1,62,left,True,2024-06-24 11:01:20.356,2024-06-24 11:01:26.091,5.735,21,left,12000,24000,V
1,63,left,True,2024-06-24 11:01:48.188,2024-06-24 11:01:54.191,6.003,15,left,12000,24000,V
1,64,right,True,2024-06-24 11:02:16.270,2024-06-24 11:02:22.358,6.088,87,right,12000,24000,V
1,65,left,True,2024-06-24 11:02:44.435,2024-06-24 11:02:50.224,5.789,89,left,12000,24000,V
1,66,left,True,2024-06-24 11:03:12.304,2024-06-24 11:03:17.991,5.687,57,left,12000,24000,V
1,67,right,True,2024-06-24 11:03:40.090,2024-06-24 11:03:44.191,4.101,39,right,12000,24000,V
1,68,left,True,2024-06-24 11:04:06.287,2024-06-24 11:04:13.874,7.587,65,left,12000,24000,V
1,69,left,True,2024-06-24 11:04:35.955,2024-06-24 11:04:42.808,6.853,91,left,12000,24000,V
1,70,right,True,2024-06-24 11:05:04.889,2024-06-24 11:05:10.508,5.619,7,right,12000,24000,V
1,71,right,True,2024-06-24 11:05:32.579,2024-06-24 11:05:35.658,3.079,37,right,12000,24000,V
1,72,left,True,2024-06-24 11:05:57.757,2024-06-24 11:06:01.958,4.201,45,left,12000,24000,V
1,73,right,True,2024-06-24 11:12:56.722,2024-06-24 11:13:00.209,3.487,55,right,12000,24000,V
1,74,right,True,2024-06-24 11:13:22.288,2024-06-24 11:13:26.025,3.737,67,right,12000,24000,V
1,75,left,True,2024-06-24 11:13:48.106,2024-06-24 11:13:52.442,4.336,79,left,12000,24000,V
1,76,right,True,2024-06-24 11:14:14.540,2024-06-24 11:14:20.509,5.969,27,right,12000,24000,V
1,77,right,True,2024-06-24 11:14:42.584,2024-06-24 11:14:51.442,8.858,13,right,12000,24000,V
1,78,left,True,2024-06-24 11:15:13.541,2024-06-24 11:15:18.092,4.551,35,left,12000,24000,V
1,79,right,True,2024-06-24 11:15:40.190,2024-06-24 11:15:44.859,4.669,43,right,12000,24000,V
1,80,right,True,2024-06-24 11:16:06.928,2024-06-24 11:16:12.809,5.881,49,right,12000,24000,V
1,81,left,True,2024-06-24 11:16:34.907,2024-06-24 11:16:37.309,2.402,29,left,12000,24000,V
1,82,right,True,2024-06-24 11:16:59.405,2024-06-24 11:17:03.876,4.471,59,right,12000,24000,V
1,83,right,True,2024-06-24 11:17:25.957,2024-06-24 11:17:34.909,8.952,81,right,12000,24000,V
1,84,left,True,2024-06-24 11:17:57.006,2024-06-24 11:18:02.043,5.037,73,left,12000,24000,V
1,85,right,True,2024-06-24 11:18:24.147,2024-06-24 11:18:28.443,4.296,38,right,12000,24000,VH
1,86,left,True,2024-06-24 11:18:50.545,2024-06-24 11:18:56.927,6.382,86,left,12000,24000,VH
1,87,left,True,2024-06-24 11:19:19.028,2024-06-24 11:19:26.460,7.432,96,left,12000,24000,VH
1,88,right,True,2024-06-24 11:19:48.563,2024-06-24 11:19:52.043,3.48,28,right,12000,24000,VH
1,89,left,True,2024-06-24 11:20:14.149,2024-06-24 11:20:18.910,4.761,42,left,12000,24000,VH
1,90,left,True,2024-06-24 11:20:41.012,2024-06-24 11:20:48.343,7.331,54,left,12000,24000,VH
1,91,right,True,2024-06-24 11:21:10.448,2024-06-24 11:21:17.010,6.562,76,right,12000,24000,VH
1,92,left,True,2024-06-24 11:21:39.113,2024-06-24 11:21:43.660,4.547,62,left,12000,24000,VH
1,93,right,True,2024-06-24 11:22:05.765,2024-06-24 11:22:15.876,10.111,34,right,12000,24000,VH
1,94,right,True,2024-06-24 11:22:37.980,2024-06-24 11:22:41.543,3.563,74,right,12000,24000,VH
1,95,right,False,2024-06-24 11:23:03.646,2024-06-24 11:23:08.643,4.997,14,left,12000,24000,VH
1,96,right,True,2024-06-24 11:23:30.745,2024-06-24 11:23:34.910,4.165,64,right,12000,24000,VH
2,1,right,True,2024-06-24 13:20:24.731,2024-06-24 13:20:47.445,22.714,24,right,12000,24000,V
2,2,right,False,2024-06-24 13:21:09.514,2024-06-24 13:21:33.678,24.164,44,left,12000,24000,V
2,3,right,False,2024-06-24 13:21:55.746,2024-06-24 13:22:08.578,12.832,14,left,12000,24000,V
2,4,right,True,2024-06-24 13:22:30.649,2024-06-24 13:22:51.727,21.078,48,right,12000,24000,V
2,5,left,True,2024-06-24 13:23:13.799,2024-06-24 13:23:40.410,26.611,38,left,12000,24000,V
2,6,left,True,2024-06-24 13:24:02.480,2024-06-24 13:24:31.344,28.864,70,left,12000,24000,V
2,7,left,False,2024-06-24 13:24:53.415,2024-06-24 13:25:19.911,26.496,66,right,12000,24000,V
2,8,right,True,2024-06-24 13:25:41.984,2024-06-24 13:26:08.144,26.16,26,right,12000,24000,V
2,9,left,True,2024-06-24 13:26:30.214,2024-06-24 13:26:56.027,25.813,92,left,12000,24000,V
2,10,left,False,2024-06-24 13:27:18.097,2024-06-24 13:27:42.078,23.981,56,right,12000,24000,V
2,11,left,False,2024-06-24 13:28:04.150,2024-06-24 13:28:30.211,26.061,80,right,12000,24000,V
2,12,right,False,2024-06-24 13:28:52.281,2024-06-24 13:29:14.911,22.63,12,left,12000,24000,V
2,13,right,True,2024-06-24 13:29:36.998,2024-06-24 13:29:58.678,21.68,15,right,12000,24000,VH
2,14,left,False,2024-06-24 13:30:20.766,2024-06-24 13:30:42.545,21.779,25,right,12000,24000,VH
2,15,right,False,2024-06-24 13:31:04.633,2024-06-24 13:31:29.578,24.945,19,left,12000,24000,VH
2,16,left,False,2024-06-24 13:31:51.664,2024-06-24 13:32:15.445,23.781,67,right,12000,24000,VH
2,17,right,True,2024-06-24 13:32:37.533,2024-06-24 13:33:02.379,24.846,81,right,12000,24000,VH
2,18,left,True,2024-06-24 13:33:24.466,2024-06-24 13:33:48.229,23.763,37,left,12000,24000,VH
2,19,left,False,2024-06-24 13:34:10.315,2024-06-24 13:34:34.195,23.88,43,right,12000,24000,VH
2,20,right,False,2024-06-24 13:34:56.281,2024-06-24 13:35:17.995,21.714,85,left,12000,24000,VH
2,21,left,False,2024-06-24 13:35:40.082,2024-06-24 13:35:57.795,17.713,45,right,12000,24000,VH
2,22,right,False,2024-06-24 13:36:19.881,2024-06-24 13:36:45.128,25.247,73,left,12000,24000,VH
2,23,left,True,2024-06-24 13:37:07.216,2024-06-24 13:37:30.012,22.796,39,left,12000,24000,VH
2,24,left,False,2024-06-24 13:37:52.100,2024-06-24 13:38:11.162,19.062,27,right,12000,24000,VH
2,25,right,False,2024-06-24 13:47:56.002,2024-06-24 13:48:19.442,23.44,30,left,12000,24000,V
2,26,left,True,2024-06-24 13:48:41.513,2024-06-24 13:49:02.208,20.695,76,left,12000,24000,V
2,27,right,True,2024-06-24 13:49:24.281,2024-06-24 13:49:46.742,22.461,34,right,12000,24000,V
2,28,left,True,2024-06-24 13:50:08.813,2024-06-24 13:50:29.625,20.812,82,left,12000,24000,V
2,29,right,True,2024-06-24 13:50:51.680,2024-06-24 13:51:12.642,20.962,78,right,12000,24000,V
2,30,right,True,2024-06-24 13:51:34.711,2024-06-24 13:51:55.759,21.048,58,right,12000,24000,V
2,31,right,False,2024-06-24 13:52:17.814,2024-06-24 13:52:42.092,24.278,32,left,12000,24000,V
2,32,right,True,2024-06-24 13:53:04.162,2024-06-24 13:53:23.809,19.647,20,right,12000,24000,V
2,33,right,True,2024-06-24 13:53:45.879,2024-06-24 13:54:08.225,22.346,6,right,12000,24000,V
2,34,right,False,2024-06-24 13:54:30.279,2024-06-24 13:54:51.492,21.213,22,left,12000,24000,V
2,35,left,True,2024-06-24 13:55:13.546,2024-06-24 13:55:37.359,23.813,74,left,12000,24000,V
2,36,left,False,2024-06-24 13:55:59.411,2024-06-24 13:56:07.609,8.198,54,right,12000,24000,V
2,37,right,False,2024-06-24 13:56:29.680,2024-06-24 13:56:49.209,19.529,21,left,12000,24000,VH
2,38,right,False,2024-06-24 13:57:11.281,2024-06-24 13:57:22.176,10.895,47,left,12000,24000,VH
2,39,left,False,2024-06-24 13:57:44.264,2024-06-24 13:57:54.009,9.745,79,right,12000,24000,VH
2,40,left,True,2024-06-24 13:58:16.078,2024-06-24 13:58:29.492,13.414,69,left,12000,24000,VH
2,41,right,False,2024-06-24 13:58:51.580,2024-06-24 13:59:18.742,27.162,75,left,12000,24000,VH
2,42,right,True,2024-06-24 13:59:40.829,2024-06-24 14:00:02.709,21.88,87,right,12000,24000,VH
2,43,left,True,2024-06-24 14:00:24.797,2024-06-24 14:00:38.692,13.895,23,left,12000,24000,VH
2,44,left,True,2024-06-24 14:01:00.764,2024-06-24 14:01:18.309,17.545,83,left,12000,24000,VH
2,45,right,True,2024-06-24 14:01:40.379,2024-06-24 14:01:51.909,11.53,77,right,12000,24000,VH
2,46,left,True,2024-06-24 14:02:13.980,2024-06-24 14:02:36.343,22.363,55,left,12000,24000,VH
2,47,left,True,2024-06-24 14:02:58.414,2024-06-24 14:03:14.959,16.545,7,left,12000,24000,VH
2,48,right,True,2024-06-24 14:03:37.031,2024-06-24 14:04:00.593,23.562,13,right,12000,24000,VH
2,49,left,True,2024-06-24 14:08:26.332,2024-06-24 14:08:34.027,7.695,33,left,12000,24000,VH
2,50,right,True,2024-06-24 14:08:56.113,2024-06-24 14:09:18.510,22.397,11,right,12000,24000,VH
2,51,right,False,2024-06-24 14:09:40.596,2024-06-24 14:09:50.843,10.247,65,left,12000,24000,VH
2,52,right,True,2024-06-24 14:10:12.931,2024-06-24 14:10:39.276,26.345,9,right,12000,24000,VH
2,53,left,True,2024-06-24 14:11:01.365,2024-06-24 14:11:06.643,5.278,5,left,12000,24000,VH
2,54,right,False,2024-06-24 14:11:28.732,2024-06-24 14:11:51.793,23.061,29,left,12000,24000,VH
2,55,left,False,2024-06-24 14:12:13.864,2024-06-24 14:12:33.627,19.763,63,right,12000,24000,VH
2,56,right,True,2024-06-24 14:12:55.714,2024-06-24 14:13:08.610,12.896,51,right,12000,24000,VH
2,57,left,True,2024-06-24 14:13:30.698,2024-06-24 14:13:52.860,22.162,91,left,12000,24000,VH
2,58,right,True,2024-06-24 14:14:14.931,2024-06-24 14:14:34.377,19.446,71,right,12000,24000,VH
2,59,right,True,2024-06-24 14:14:56.464,2024-06-24 14:15:20.227,23.763,95,right,12000,24000,VH
2,60,left,True,2024-06-24 14:15:42.314,2024-06-24 14:15:47.327,5.013,59,left,12000,24000,VH
2,61,right,True,2024-06-24 14:16:09.397,2024-06-24 14:16:27.527,18.13,60,right,12000,24000,V
2,62,left,False,2024-06-24 14:16:49.597,2024-06-24 14:17:10.094,20.497,52,right,12000,24000,V
2,63,left,True,2024-06-24 14:17:32.168,2024-06-24 14:17:57.044,24.876,46,left,12000,24000,V
2,64,right,True,2024-06-24 14:18:19.117,2024-06-24 14:18:30.194,11.077,40,right,12000,24000,V
2,65,right,False,2024-06-24 14:18:52.266,2024-06-24 14:19:11.444,19.178,84,left,12000,24000,V
2,66,right,False,2024-06-24 14:19:33.513,2024-06-24 14:19:46.827,13.314,64,left,12000,24000,V
2,67,right,True,2024-06-24 14:20:08.897,2024-06-24 14:20:28.460,19.563,86,right,12000,24000,V
2,68,right,False,2024-06-24 14:20:50.515,2024-06-24 14:21:17.194,26.679,62,left,12000,24000,V
2,69,right,False,2024-06-24 14:21:39.249,2024-06-24 14:21:59.594,20.345,18,left,12000,24000,V
2,70,left,False,2024-06-24 14:22:21.647,2024-06-24 14:22:41.077,19.43,8,right,12000,24000,V
2,71,left,True,2024-06-24 14:23:03.132,2024-06-24 14:23:24.111,20.979,16,left,12000,24000,V
2,72,left,True,2024-06-24 14:23:46.164,2024-06-24 14:24:01.677,15.513,96,left,12000,24000,V
2,73,right,True,2024-06-24 14:31:12.153,2024-06-24 14:31:26.078,13.925,89,right,12000,24000,VH
2,74,left,True,2024-06-24 14:31:48.164,2024-06-24 14:32:10.745,22.581,49,left,12000,24000,VH
2,75,right,False,2024-06-24 14:32:32.832,2024-06-24 14:32:54.028,21.196,17,left,12000,24000,VH
2,76,right,True,2024-06-24 14:33:16.116,2024-06-24 14:33:24.911,8.795,41,right,12000,24000,VH
2,77,left,True,2024-06-24 14:33:47.000,2024-06-24 14:33:55.028,8.028,35,left,12000,24000,VH
2,78,right,True,2024-06-24 14:34:17.115,2024-06-24 14:34:30.345,13.23,3,right,12000,24000,VH
2,79,left,True,2024-06-24 14:34:52.432,2024-06-24 14:35:09.461,17.029,93,left,12000,24000,VH
2,80,right,True,2024-06-24 14:35:31.532,2024-06-24 14:35:43.511,11.979,53,right,12000,24000,VH
2,81,right,True,2024-06-24 14:36:05.598,2024-06-24 14:36:11.195,5.597,57,right,12000,24000,VH
2,82,left,True,2024-06-24 14:36:33.284,2024-06-24 14:36:42.778,9.494,31,left,12000,24000,VH
2,83,left,True,2024-06-24 14:37:04.849,2024-06-24 14:37:16.061,11.212,1,left,12000,24000,VH
2,84,right,True,2024-06-24 14:37:38.147,2024-06-24 14:37:53.128,14.981,61,right,12000,24000,VH
2,85,right,False,2024-06-24 14:38:15.198,2024-06-24 14:38:23.095,7.897,90,left,12000,24000,V
2,86,right,True,2024-06-24 14:38:45.166,2024-06-24 14:38:57.145,11.979,4,right,12000,24000,V
2,87,left,True,2024-06-24 14:39:19.215,2024-06-24 14:39:32.012,12.797,88,left,12000,24000,V
2,88,right,True,2024-06-24 14:39:54.067,2024-06-24 14:40:03.928,9.861,28,right,12000,24000,V
2,89,left,False,2024-06-24 14:40:25.983,2024-06-24 14:40:43.045,17.062,10,right,12000,24000,V
2,90,left,True,2024-06-24 14:41:05.099,2024-06-24 14:41:16.312,11.213,50,left,12000,24000,V
2,91,left,False,2024-06-24 14:41:38.382,2024-06-24 14:42:02.812,24.43,2,right,12000,24000,V
2,92,right,True,2024-06-24 14:42:24.866,2024-06-24 14:42:31.429,6.563,42,right,12000,24000,V
2,93,right,False,2024-06-24 14:42:53.498,2024-06-24 14:42:57.929,4.431,68,left,12000,24000,V
2,94,right,True,2024-06-24 14:43:19.999,2024-06-24 14:43:35.179,15.18,94,right,12000,24000,V
2,95,right,True,2024-06-24 14:43:57.231,2024-06-24 14:44:14.045,16.814,72,right,12000,24000,V
2,96,right,True,2024-06-24 14:44:36.118,2024-06-24 14:44:47.545,11.427,36,right,12000,24000,V
3,1,left,False,2024-06-24 15:12:49.439,2024-06-24 15:13:07.914,18.475,56,right,12000,24000,VH
3,2,left,True,2024-06-24 15:13:29.999,2024-06-24 15:13:36.180,6.181,66,left,12000,24000,VH
3,3,left,True,2024-06-24 15:13:58.268,2024-06-24 15:14:13.147,14.879,4,left,12000,24000,VH
3,4,left,False,2024-06-24 15:14:35.235,2024-06-24 15:14:50.630,15.395,26,right,12000,24000,VH
3,5,left,True,2024-06-24 15:15:12.719,2024-06-24 15:15:22.397,9.678,78,left,12000,24000,VH
3,6,right,True,2024-06-24 15:15:44.484,2024-06-24 15:15:54.130,9.646,74,right,12000,24000,VH
3,7,left,True,2024-06-24 15:16:16.216,2024-06-24 15:16:27.214,10.998,72,left,12000,24000,VH
3,8,left,True,2024-06-24 15:16:49.303,2024-06-24 15:17:05.697,16.394,76,left,12000,24000,VH
3,9,right,True,2024-06-24 15:17:27.784,2024-06-24 15:17:39.931,12.147,70,right,12000,24000,VH
3,10,right,True,2024-06-24 15:18:02.020,2024-06-24 15:18:15.097,13.077,36,right,12000,24000,VH
3,11,left,True,2024-06-24 15:18:37.186,2024-06-24 15:18:55.197,18.011,48,left,12000,24000,VH
3,12,left,False,2024-06-24 15:19:17.284,2024-06-24 15:19:41.647,24.363,12,right,12000,24000,VH
3,13,right,True,2024-06-24 15:20:03.717,2024-06-24 15:20:16.664,12.947,11,right,12000,24000,V
3,14,left,True,2024-06-24 15:20:38.734,2024-06-24 15:20:48.831,10.097,77,left,12000,24000,V
3,15,right,True,2024-06-24 15:21:10.903,2024-06-24 15:21:21.164,10.261,35,right,12000,24000,V
3,16,right,True,2024-06-24 15:21:43.236,2024-06-24 15:21:58.931,15.695,3,right,12000,24000,V
3,17,right,False,2024-06-24 15:22:21.002,2024-06-24 15:22:44.498,23.496,75,left,12000,24000,V
3,18,right,True,2024-06-24 15:23:06.566,2024-06-24 15:23:15.714,9.148,49,right,12000,24000,V
3,19,right,True,2024-06-24 15:23:37.786,2024-06-24 15:23:49.131,11.345,19,right,12000,24000,V
3,20,left,True,2024-06-24 15:24:11.201,2024-06-24 15:24:22.731,11.53,9,left,12000,24000,V
3,21,right,True,2024-06-24 15:24:44.787,2024-06-24 15:24:57.065,12.278,41,right,12000,24000,V
3,22,right,True,2024-06-24 15:25:19.136,2024-06-24 15:25:31.498,12.362,47,right,12000,24000,V
3,23,left,True,2024-06-24 15:25:53.567,2024-06-24 15:26:11.515,17.948,55,left,12000,24000,V
3,24,right,True,2024-06-24 15:26:33.584,2024-06-24 15:26:48.231,14.647,85,right,12000,24000,V
3,25,left,True,2024-06-24 15:38:24.936,2024-06-24 15:38:32.232,7.296,8,left,12000,24000,VH
3,26,left,True,2024-06-24 15:38:54.319,2024-06-24 15:39:02.282,7.963,2,left,12000,24000,VH
3,27,right,True,2024-06-24 15:39:24.369,2024-06-24 15:39:32.316,7.947,80,right,12000,24000,VH
3,28,left,True,2024-06-24 15:39:54.388,2024-06-24 15:40:03.915,9.527,28,left,12000,24000,VH
3,29,left,True,2024-06-24 15:40:26.004,2024-06-24 15:40:34.466,8.462,24,left,12000,24000,VH
3,30,right,True,2024-06-24 15:40:56.553,2024-06-24 15:41:20.416,23.863,92,right,12000,24000,VH
3,31,left,True,2024-06-24 15:41:42.503,2024-06-24 15:41:58.582,16.079,86,left,12000,24000,VH
3,32,left,True,2024-06-24 15:42:20.652,2024-06-24 15:42:29.782,9.13,64,left,12000,24000,VH
3,33,right,True,2024-06-24 15:42:51.868,2024-06-24 15:43:08.532,16.664,54,right,12000,24000,VH
3,34,left,True,2024-06-24 15:43:30.620,2024-06-24 15:43:37.732,7.112,18,left,12000,24000,VH
3,35,right,True,2024-06-24 15:43:59.819,2024-06-24 15:44:15.932,16.113,60,right,12000,24000,VH
3,36,right,False,2024-06-24 15:44:38.021,2024-06-24 15:44:55.149,17.128,38,left,12000,24000,VH
3,37,left,True,2024-06-24 15:45:17.218,2024-06-24 15:45:28.849,11.631,51,left,12000,24000,V
3,38,left,False,2024-06-24 15:45:50.903,2024-06-24 15:46:10.433,19.53,89,right,12000,24000,V
3,39,right,False,2024-06-24 15:46:32.504,2024-06-24 15:46:51.499,18.995,31,left,12000,24000,V
3,40,left,False,2024-06-24 15:47:13.571,2024-06-24 15:47:28.716,15.145,33,right,12000,24000,V
3,41,right,True,2024-06-24 15:47:50.768,2024-06-24 15:47:59.716,8.948,95,right,12000,24000,V
3,42,left,True,2024-06-24 15:48:21.785,2024-06-24 15:48:31.499,9.714,71,left,12000,24000,V
3,43,left,True,2024-06-24 15:48:53.568,2024-06-24 15:49:01.499,7.931,67,left,12000,24000,V
3,44,right,True,2024-06-24 15:49:23.554,2024-06-24 15:49:36.199,12.645,27,right,12000,24000,V
3,45,left,True,2024-06-24 15:49:58.271,2024-06-24 15:50:07.033,8.762,25,left,12000,24000,V
3,46,left,True,2024-06-24 15:50:29.102,2024-06-24 15:50:40.799,11.697,53,left,12000,24000,V
3,47,left,False,2024-06-24 15:51:02.869,2024-06-24 15:51:22.900,20.031,87,right,12000,24000,V
3,48,left,True,2024-06-24 15:51:44.969,2024-06-24 15:51:53.350,8.381,91,left,12000,24000,V
3,49,left,True,2024-06-24 16:00:26.661,2024-06-24 16:00:31.784,5.123,13,left,12000,24000,V
3,50,right,True,2024-06-24 16:00:53.854,2024-06-24 16:01:01.617,7.763,37,right,12000,24000,V
3,51,right,True,2024-06-24 16:01:23.688,2024-06-24 16:01:32.584,8.896,83,right,12000,24000,V
3,52,left,True,2024-06-24 16:01:54.654,2024-06-24 16:02:01.117,6.463,73,left,12000,24000,V
3,53,right,True,2024-06-24 16:02:23.171,2024-06-24 16:02:37.750,14.579,17,right,12000,24000,V
3,54,right,True,2024-06-24 16:02:59.819,2024-06-24 16:03:15.084,15.265,1,right,12000,24000,V
3,55,right,False,2024-06-24 16:03:37.137,2024-06-24 16:03:56.617,19.48,63,left,12000,24000,V
3,56,right,True,2024-06-24 16:04:18.689,2024-06-24 16:04:32.700,14.011,29,right,12000,24000,V
3,57,left,True,2024-06-24 16:04:54.757,2024-06-24 16:05:06.900,12.143,43,left,12000,24000,V
3,58,right,True,2024-06-24 16:05:28.971,2024-06-24 16:05:35.100,6.129,5,right,12000,24000,V
3,59,left,False,2024-06-24 16:05:57.171,2024-06-24 16:06:18.150,20.979,39,right,12000,24000,V
3,60,left,True,2024-06-24 16:06:40.220,2024-06-24 16:06:46.284,6.064,59,left,12000,24000,V
3,61,left,True,2024-06-24 16:07:08.355,2024-06-24 16:07:22.517,14.162,6,left,12000,24000,VH
3,62,right,True,2024-06-24 16:07:44.603,2024-06-24 16:07:51.167,6.564,50,right,12000,24000,VH
3,63,left,True,2024-06-24 16:08:13.254,2024-06-24 16:08:21.434,8.18,62,left,12000,24000,VH
3,64,left,True,2024-06-24 16:08:43.504,2024-06-24 16:08:54.884,11.38,20,left,12000,24000,VH
3,65,right,True,2024-06-24 16:09:16.954,2024-06-24 16:09:27.651,10.697,94,right,12000,24000,VH
3,66,left,True,2024-06-24 16:09:49.737,2024-06-24 16:10:01.184,11.447,90,left,12000,24000,VH
3,67,right,True,2024-06-24 16:10:23.254,2024-06-24 16:10:45.334,22.08,68,right,12000,24000,VH
3,68,right,True,2024-06-24 16:11:07.403,2024-06-24 16:11:19.334,11.931,52,right,12000,24000,VH
3,69,left,True,2024-06-24 16:11:41.421,2024-06-24 16:11:50.201,8.78,96,left,12000,24000,VH
3,70,right,True,2024-06-24 16:12:12.289,2024-06-24 16:12:25.101,12.812,22,right,12000,24000,VH
3,71,right,True,2024-06-24 16:12:47.170,2024-06-24 16:12:55.118,7.948,88,right,12000,24000,VH
3,72,left,True,2024-06-24 16:13:17.204,2024-06-24 16:13:33.851,16.647,14,left,12000,24000,VH
3,73,right,True,2024-06-24 16:24:47.606,2024-06-24 16:24:56.119,8.513,46,right,12000,24000,VH
3,74,right,True,2024-06-24 16:25:18.206,2024-06-24 16:25:24.285,6.079,82,right,12000,24000,VH
3,75,left,True,2024-06-24 16:25:46.374,2024-06-24 16:25:51.652,5.278,44,left,12000,24000,VH
3,76,right,True,2024-06-24 16:26:13.740,2024-06-24 16:26:19.352,5.612,84,right,12000,24000,VH
3,77,left,True,2024-06-24 16:26:41.442,2024-06-24 16:26:47.969,6.527,34,left,12000,24000,VH
3,78,left,True,2024-06-24 16:27:10.057,2024-06-24 16:27:16.685,6.628,30,left,12000,24000,VH
3,79,left,False,2024-06-24 16:27:38.773,2024-06-24 16:27:53.535,14.762,58,right,12000,24000,VH
3,80,right,True,2024-06-24 16:28:15.624,2024-06-24 16:28:21.969,6.345,16,right,12000,24000,VH
3,81,left,True,2024-06-24 16:28:44.057,2024-06-24 16:28:50.152,6.095,32,left,12000,24000,VH
3,82,right,True,2024-06-24 16:29:12.240,2024-06-24 16:29:19.852,7.612,40,right,12000,24000,VH
3,83,left,True,2024-06-24 16:29:41.923,2024-06-24 16:29:49.652,7.729,10,left,12000,24000,VH
3,84,left,True,2024-06-24 16:30:11.740,2024-06-24 16:30:25.085,13.345,42,left,12000,24000,VH
3,85,right,True,2024-06-24 16:30:47.155,2024-06-24 16:31:01.969,14.814,93,right,12000,24000,V
3,86,right,True,2024-06-24 16:31:24.039,2024-06-24 16:31:32.719,8.68,23,right,12000,24000,V
3,87,left,True,2024-06-24 16:31:54.788,2024-06-24 16:32:00.719,5.931,69,left,12000,24000,V
3,88,left,True,2024-06-24 16:32:22.789,2024-06-24 16:32:29.119,6.33,79,left,12000,24000,V
3,89,right,True,2024-06-24 16:32:51.192,2024-06-24 16:32:59.069,7.877,45,right,12000,24000,V
3,90,left,True,2024-06-24 16:33:21.139,2024-06-24 16:33:29.219,8.08,57,left,12000,24000,V
3,91,left,True,2024-06-24 16:33:51.289,2024-06-24 16:34:03.453,12.164,7,left,12000,24000,V
3,92,right,True,2024-06-24 16:34:25.523,2024-06-24 16:34:33.286,7.763,15,right,12000,24000,V
3,93,right,True,2024-06-24 16:34:55.359,2024-06-24 16:35:09.853,14.494,21,right,12000,24000,V
3,94,left,True,2024-06-24 16:35:31.922,2024-06-24 16:35:39.836,7.914,65,left,12000,24000,V
3,95,right,True,2024-06-24 16:36:01.905,2024-06-24 16:36:09.836,7.931,61,right,12000,24000,V
3,96,left,True,2024-06-24 16:36:31.890,2024-06-24 16:36:37.836,5.946,81,left,12000,24000,V
4,1,left,True,2024-06-24 17:10:26.698,2024-06-24 17:10:34.922,8.224,28,left,12000,24000,V
4,2,right,True,2024-06-24 17:10:56.973,2024-06-24 17:11:03.605,6.632,64,right,12000,24000,V
4,3,right,True,2024-06-24 17:11:25.675,2024-06-24 17:11:32.971,7.296,60,right,12000,24000,V
4,4,right,False,2024-06-24 17:11:55.025,2024-06-24 17:12:07.355,12.33,70,left,12000,24000,V
4,5,right,True,2024-06-24 17:12:29.410,2024-06-24 17:12:36.338,6.928,38,right,12000,24000,V
4,6,left,True,2024-06-24 17:12:58.409,2024-06-24 17:13:05.655,7.246,2,left,12000,24000,V
4,7,left,True,2024-06-24 17:13:27.727,2024-06-24 17:13:36.805,9.078,4,left,12000,24000,V
4,8,right,True,2024-06-24 17:13:58.876,2024-06-24 17:14:03.938,5.062,20,right,12000,24000,V
4,9,left,True,2024-06-24 17:14:26.009,2024-06-24 17:14:33.572,7.563,96,left,12000,24000,V
4,10,left,True,2024-06-24 17:14:55.643,2024-06-24 17:15:05.222,9.579,94,left,12000,24000,V
4,11,right,True,2024-06-24 17:15:27.293,2024-06-24 17:15:35.588,8.295,12,right,12000,24000,V
4,12,left,True,2024-06-24 17:15:57.659,2024-06-24 17:16:02.022,4.363,24,left,12000,24000,V
4,13,left,False,2024-06-24 17:16:24.091,2024-06-24 17:16:40.405,16.314,95,right,12000,24000,VH
4,14,left,True,2024-06-24 17:17:02.494,2024-06-24 17:17:10.872,8.378,27,left,12000,24000,VH
4,15,right,True,2024-06-24 17:17:32.961,2024-06-24 17:17:42.022,9.061,31,right,12000,24000,VH
4,16,left,True,2024-06-24 17:18:04.108,2024-06-24 17:18:10.122,6.014,63,left,12000,24000,VH
4,17,right,True,2024-06-24 17:18:32.210,2024-06-24 17:18:36.822,4.612,75,right,12000,24000,VH
4,18,right,True,2024-06-24 17:18:58.908,2024-06-24 17:19:05.589,6.681,69,right,12000,24000,VH
4,19,left,True,2024-06-24 17:19:27.677,2024-06-24 17:19:35.189,7.512,7,left,12000,24000,VH
4,20,left,False,2024-06-24 17:19:57.277,2024-06-24 17:20:12.039,14.762,55,right,12000,24000,VH
4,21,right,True,2024-06-24 17:20:34.127,2024-06-24 17:20:44.372,10.245,79,right,12000,24000,VH
4,22,left,True,2024-06-24 17:21:06.444,2024-06-24 17:21:12.489,6.045,39,left,12000,24000,VH
4,23,right,True,2024-06-24 17:21:34.560,2024-06-24 17:21:39.589,5.029,5,right,12000,24000,VH
4,24,right,True,2024-06-24 17:22:01.659,2024-06-24 17:22:08.839,7.18,51,right,12000,24000,VH
4,25,left,True,2024-06-24 17:26:59.865,2024-06-24 17:27:06.756,6.891,61,left,12000,24000,VH
4,26,right,True,2024-06-24 17:27:28.843,2024-06-24 17:27:34.056,5.213,9,right,12000,24000,VH
4,27,right,True,2024-06-24 17:27:56.143,2024-06-24 17:28:01.256,5.113,3,right,12000,24000,VH
4,28,left,True,2024-06-24 17:28:23.328,2024-06-24 17:28:30.489,7.161,41,left,12000,24000,VH
4,29,right,True,2024-06-24 17:28:52.559,2024-06-24 17:29:01.156,8.597,57,right,12000,24000,VH
4,30,right,True,2024-06-24 17:29:23.243,2024-06-24 17:29:30.006,6.763,53,right,12000,24000,VH
4,31,right,False,2024-06-24 17:29:52.095,2024-06-24 17:29:58.539,6.444,21,left,12000,24000,VH
4,32,left,True,2024-06-24 17:30:20.627,2024-06-24 17:30:30.423,9.796,73,left,12000,24000,VH
4,33,right,True,2024-06-24 17:30:52.511,2024-06-24 17:30:59.206,6.695,23,right,12000,24000,VH
4,34,right,False,2024-06-24 17:31:21.292,2024-06-24 17:31:36.990,15.698,85,left,12000,24000,VH
4,35,left,True,2024-06-24 17:31:59.062,2024-06-24 17:32:08.473,9.411,83,left,12000,24000,VH
4,36,right,True,2024-06-24 17:32:30.559,2024-06-24 17:32:38.873,8.314,67,right,12000,24000,VH
4,37,left,True,2024-06-24 17:33:00.928,2024-06-24 17:33:08.306,7.378,26,left,12000,24000,V
4,38,left,True,2024-06-24 17:33:30.377,2024-06-24 17:33:39.140,8.763,10,left,12000,24000,V
4,39,right,True,2024-06-24 17:34:01.209,2024-06-24 17:34:10.106,8.897,68,right,12000,24000,V
4,40,left,True,2024-06-24 17:34:32.176,2024-06-24 17:34:39.840,7.664,72,left,12000,24000,V
4,41,left,True,2024-06-24 17:35:01.911,2024-06-24 17:35:09.523,7.612,74,left,12000,24000,V
4,42,left,False,2024-06-24 17:35:31.596,2024-06-24 17:35:44.990,13.394,36,right,12000,24000,V
4,43,left,True,2024-06-24 17:36:07.059,2024-06-24 17:36:12.323,5.264,52,left,12000,24000,V
4,44,left,True,2024-06-24 17:36:34.393,2024-06-24 17:36:45.757,11.364,54,left,12000,24000,V
4,45,right,True,2024-06-24 17:37:07.829,2024-06-24 17:37:14.257,6.428,32,right,12000,24000,V
4,46,left,True,2024-06-24 17:37:36.326,2024-06-24 17:37:45.340,9.014,92,left,12000,24000,V
4,47,left,True,2024-06-24 17:38:07.397,2024-06-24 17:38:19.340,11.943,48,left,12000,24000,V
4,48,right,True,2024-06-24 17:38:41.409,2024-06-24 17:38:47.990,6.581,50,right,12000,24000,V
4,49,left,True,2024-06-24 17:40:48.766,2024-06-24 17:40:58.258,9.492,6,left,12000,24000,V
4,50,left,True,2024-06-24 17:41:20.327,2024-06-24 17:41:35.057,14.73,14,left,12000,24000,V
4,51,right,True,2024-06-24 17:41:57.127,2024-06-24 17:42:08.057,10.93,62,right,12000,24000,V
4,52,left,True,2024-06-24 17:42:30.129,2024-06-24 17:42:34.674,4.545,30,left,12000,24000,V
4,53,left,True,2024-06-24 17:42:56.744,2024-06-24 17:43:03.607,6.863,56,left,12000,24000,V
4,54,right,True,2024-06-24 17:43:25.660,2024-06-24 17:43:34.807,9.147,58,right,12000,24000,V
4,55,left,True,2024-06-24 17:43:56.879,2024-06-24 17:44:03.574,6.695,16,left,12000,24000,V
4,56,left,True,2024-06-24 17:44:25.645,2024-06-24 17:44:32.757,7.112,80,left,12000,24000,V
4,57,left,False,2024-06-24 17:44:54.811,2024-06-24 17:45:17.024,22.213,88,right,12000,24000,V
4,58,left,True,2024-06-24 17:45:39.095,2024-06-24 17:45:51.874,12.779,84,left,12000,24000,V
4,59,right,False,2024-06-24 17:46:13.943,2024-06-24 17:46:33.641,19.698,86,left,12000,24000,V
4,60,right,True,2024-06-24 17:46:55.695,2024-06-24 17:47:02.607,6.912,82,right,12000,24000,V
4,61,left,True,2024-06-24 17:47:24.696,2024-06-24 17:47:33.641,8.945,43,left,12000,24000,VH
4,62,left,True,2024-06-24 17:47:55.729,2024-06-24 17:48:03.008,7.279,25,left,12000,24000,VH
4,63,right,True,2024-06-24 17:48:25.095,2024-06-24 17:48:33.024,7.929,13,right,12000,24000,VH
4,64,left,True,2024-06-24 17:48:55.095,2024-06-24 17:49:03.224,8.129,93,left,12000,24000,VH
4,65,right,True,2024-06-24 17:49:25.311,2024-06-24 17:49:31.908,6.597,1,right,12000,24000,VH
4,66,right,True,2024-06-24 17:49:53.995,2024-06-24 17:50:02.391,8.396,15,right,12000,24000,VH
4,67,left,True,2024-06-24 17:50:24.478,2024-06-24 17:50:35.375,10.897,11,left,12000,24000,VH
4,68,right,True,2024-06-24 17:50:57.464,2024-06-24 17:51:05.091,7.627,33,right,12000,24000,VH
4,69,right,True,2024-06-24 17:51:27.163,2024-06-24 17:51:36.575,9.412,77,right,12000,24000,VH
4,70,left,True,2024-06-24 17:51:58.661,2024-06-24 17:52:04.891,6.23,59,left,12000,24000,VH
4,71,left,False,2024-06-24 17:52:26.981,2024-06-24 17:52:40.575,13.594,45,right,12000,24000,VH
4,72,right,True,2024-06-24 17:53:02.662,2024-06-24 17:53:10.241,7.579,17,right,12000,24000,VH
4,73,left,True,2024-06-24 17:56:25.152,2024-06-24 17:56:35.992,10.84,42,left,12000,24000,V
4,74,right,True,2024-06-24 17:56:58.063,2024-06-24 17:57:04.808,6.745,44,right,12000,24000,V
4,75,right,True,2024-06-24 17:57:26.861,2024-06-24 17:57:32.892,6.031,8,right,12000,24000,V
4,76,left,True,2024-06-24 17:57:54.945,2024-06-24 17:58:04.308,9.363,66,left,12000,24000,V
4,77,left,False,2024-06-24 17:58:26.379,2024-06-24 17:58:37.875,11.496,90,right,12000,24000,V
4,78,right,True,2024-06-24 17:58:59.947,2024-06-24 17:59:09.442,9.495,22,right,12000,24000,V
4,79,right,False,2024-06-24 17:59:31.496,2024-06-24 17:59:43.042,11.546,18,left,12000,24000,V
4,80,left,False,2024-06-24 18:00:05.113,2024-06-24 18:00:16.192,11.079,76,right,12000,24000,V
4,81,right,True,2024-06-24 18:00:38.263,2024-06-24 18:00:44.259,5.996,46,right,12000,24000,V
4,82,left,True,2024-06-24 18:01:06.330,2024-06-24 18:01:19.275,12.945,34,left,12000,24000,V
4,83,right,True,2024-06-24 18:01:41.347,2024-06-24 18:01:47.575,6.228,40,right,12000,24000,V
4,84,right,True,2024-06-24 18:02:09.647,2024-06-24 18:02:17.775,8.128,78,right,12000,24000,V
4,85,left,True,2024-06-24 18:02:39.863,2024-06-24 18:02:49.259,9.396,29,left,12000,24000,VH
4,86,right,True,2024-06-24 18:03:11.345,2024-06-24 18:03:19.092,7.747,91,right,12000,24000,VH
4,87,left,True,2024-06-24 18:03:41.179,2024-06-24 18:03:51.376,10.197,65,left,12000,24000,VH
4,88,right,True,2024-06-24 18:04:13.445,2024-06-24 18:04:25.309,11.864,89,right,12000,24000,VH
4,89,right,True,2024-06-24 18:04:47.381,2024-06-24 18:04:57.459,10.078,81,right,12000,24000,VH
4,90,left,True,2024-06-24 18:05:19.546,2024-06-24 18:05:31.342,11.796,19,left,12000,24000,VH
4,91,right,True,2024-06-24 18:05:53.430,2024-06-24 18:06:00.409,6.979,37,right,12000,24000,VH
4,92,right,True,2024-06-24 18:06:22.495,2024-06-24 18:06:33.526,11.031,87,right,12000,24000,VH
4,93,left,True,2024-06-24 18:06:55.597,2024-06-24 18:07:04.042,8.445,35,left,12000,24000,VH
4,94,right,True,2024-06-24 18:07:26.128,2024-06-24 18:07:37.226,11.098,49,right,12000,24000,VH
4,95,left,True,2024-06-24 18:07:59.314,2024-06-24 18:08:08.576,9.262,47,left,12000,24000,VH
4,96,left,True,2024-06-24 18:08:30.662,2024-06-24 18:08:42.676,12.014,71,left,12000,24000,VH
5,1,left,False,2024-06-24 19:08:13.743,2024-06-24 19:08:26.650,12.907,6,right,12000,24000,VH
5,2,right,False,2024-06-24 19:08:48.737,2024-06-24 19:09:09.649,20.912,8,left,12000,24000,VH
5,3,right,True,2024-06-24 19:09:31.735,2024-06-24 19:09:41.283,9.548,72,right,12000,24000,VH
5,4,right,True,2024-06-24 19:10:03.370,2024-06-24 19:10:38.050,34.68,88,right,12000,24000,VH
5,5,left,True,2024-06-24 19:11:00.122,2024-06-24 19:11:11.483,11.361,36,left,12000,24000,VH
5,6,right,True,2024-06-24 19:11:33.554,2024-06-24 19:11:44.750,11.196,4,right,12000,24000,VH
5,7,right,True,2024-06-24 19:12:06.836,2024-06-24 19:12:25.783,18.947,50,right,12000,24000,VH
5,8,right,False,2024-06-24 19:12:47.872,2024-06-24 19:13:09.233,21.361,30,left,12000,24000,VH
5,9,right,True,2024-06-24 19:13:31.305,2024-06-24 19:13:48.916,17.611,26,right,12000,24000,VH
5,10,left,False,2024-06-24 19:14:11.006,2024-06-24 19:14:22.283,11.277,16,right,12000,24000,VH
5,11,left,True,2024-06-24 19:14:44.353,2024-06-24 19:15:06.516,22.163,60,left,12000,24000,VH
5,12,right,True,2024-06-24 19:15:28.589,2024-06-24 19:15:39.583,10.994,46,right,12000,24000,VH
5,13,right,True,2024-06-24 19:16:01.654,2024-06-24 19:16:14.750,13.096,73,right,12000,24000,V
5,14,left,True,2024-06-24 19:16:36.821,2024-06-24 19:16:48.233,11.412,15,left,12000,24000,V
5,15,right,True,2024-06-24 19:17:10.303,2024-06-24 19:17:21.733,11.43,57,right,12000,24000,V
5,16,right,False,2024-06-24 19:17:43.805,2024-06-24 19:18:10.000,26.195,23,left,12000,24000,V
5,17,left,True,2024-06-24 19:18:32.070,2024-06-24 19:18:47.067,14.997,75,left,12000,24000,V
5,18,right,True,2024-06-24 19:19:09.136,2024-06-24 19:19:28.900,19.764,71,right,12000,24000,V
5,19,left,True,2024-06-24 19:19:50.970,2024-06-24 19:20:02.667,11.697,93,left,12000,24000,V
5,20,left,True,2024-06-24 19:20:24.722,2024-06-24 19:20:42.367,17.645,9,left,12000,24000,V
5,21,right,True,2024-06-24 19:21:04.437,2024-06-24 19:21:26.101,21.664,61,right,12000,24000,V
5,22,left,True,2024-06-24 19:21:48.172,2024-06-24 19:22:04.817,16.645,47,left,12000,24000,V
5,23,right,False,2024-06-24 19:22:26.871,2024-06-24 19:22:41.601,14.73,87,left,12000,24000,V
5,24,right,True,2024-06-24 19:23:03.673,2024-06-24 19:23:22.634,18.961,35,right,12000,24000,V
5,25,left,True,2024-06-24 19:26:07.110,2024-06-24 19:26:24.151,17.041,2,left,12000,24000,VH
5,26,right,True,2024-06-24 19:26:46.240,2024-06-24 19:27:02.501,16.261,40,right,12000,24000,VH
5,27,left,False,2024-06-24 19:27:24.590,2024-06-24 19:27:42.185,17.595,34,right,12000,24000,VH
5,28,left,True,2024-06-24 19:28:04.273,2024-06-24 19:28:21.951,17.678,32,left,12000,24000,VH
5,29,right,True,2024-06-24 19:28:44.040,2024-06-24 19:28:59.018,14.978,78,right,12000,24000,VH
5,30,right,False,2024-06-24 19:29:21.089,2024-06-24 19:29:47.218,26.129,96,left,12000,24000,VH
5,31,left,False,2024-06-24 19:30:09.307,2024-06-24 19:30:25.302,15.995,48,right,12000,24000,VH
5,32,left,False,2024-06-24 19:30:47.390,2024-06-24 19:31:10.618,23.228,22,right,12000,24000,VH
5,33,left,True,2024-06-24 19:31:32.706,2024-06-24 19:31:40.735,8.029,44,left,12000,24000,VH
5,34,left,False,2024-06-24 19:32:02.806,2024-06-24 19:32:28.152,25.346,10,right,12000,24000,VH
5,35,right,True,2024-06-24 19:32:50.239,2024-06-24 19:33:11.385,21.146,18,right,12000,24000,VH
5,36,left,True,2024-06-24 19:33:33.472,2024-06-24 19:33:41.952,8.48,14,left,12000,24000,VH
5,37,left,False,2024-06-24 19:34:04.022,2024-06-24 19:34:26.635,22.613,3,right,12000,24000,V
5,38,left,True,2024-06-24 19:34:48.707,2024-06-24 19:34:59.936,11.229,83,left,12000,24000,V
5,39,left,True,2024-06-24 19:35:22.005,2024-06-24 19:35:31.836,9.831,49,left,12000,24000,V
5,40,left,False,2024-06-24 19:35:53.906,2024-06-24 19:36:15.119,21.213,5,right,12000,24000,V
5,41,left,True,2024-06-24 19:36:37.171,2024-06-24 19:36:57.702,20.531,63,left,12000,24000,V
5,42,right,True,2024-06-24 19:37:19.757,2024-06-24 19:37:39.203,19.446,25,right,12000,24000,V
5,43,left,False,2024-06-24 19:38:01.274,2024-06-24 19:38:28.653,27.379,27,right,12000,24000,V
5,44,left,True,2024-06-24 19:38:50.725,2024-06-24 19:39:11.686,20.961,43,left,12000,24000,V
5,45,right,True,2024-06-24 19:39:33.740,2024-06-24 19:39:47.953,14.213,1,right,12000,24000,V
5,46,right,True,2024-06-24 19:40:10.008,2024-06-24 19:40:25.886,15.878,31,right,12000,24000,V
5,47,left,True,2024-06-24 19:40:47.940,2024-06-24 19:40:58.736,10.796,67,left,12000,24000,V
5,48,left,False,2024-06-24 19:41:20.809,2024-06-24 19:41:48.036,27.227,45,right,12000,24000,V
5,49,left,True,2024-06-24 19:54:12.944,2024-06-24 19:54:24.521,11.577,33,left,12000,24000,V
5,50,right,True,2024-06-24 19:54:46.593,2024-06-24 19:55:02.621,16.028,29,right,12000,24000,V
5,51,left,True,2024-06-24 19:55:24.690,2024-06-24 19:55:34.155,9.465,51,left,12000,24000,V
5,52,right,True,2024-06-24 19:55:56.224,2024-06-24 19:56:11.038,14.814,55,right,12000,24000,V
5,53,left,False,2024-06-24 19:56:33.108,2024-06-24 19:56:50.121,17.013,11,right,12000,24000,V
5,54,left,True,2024-06-24 19:57:12.193,2024-06-24 19:57:23.538,11.345,39,left,12000,24000,V
5,55,right,True,2024-06-24 19:57:45.609,2024-06-24 19:58:06.155,20.546,37,right,12000,24000,V
5,56,right,False,2024-06-24 19:58:28.225,2024-06-24 19:58:44.388,16.163,91,left,12000,24000,V
5,57,right,True,2024-06-24 19:59:06.458,2024-06-24 19:59:20.505,14.047,77,right,12000,24000,V
5,58,left,True,2024-06-24 19:59:42.576,2024-06-24 19:59:57.705,15.129,79,left,12000,24000,V
5,59,left,True,2024-06-24 20:00:19.776,2024-06-24 20:00:28.639,8.863,19,left,12000,24000,V
5,60,left,False,2024-06-24 20:00:50.709,2024-06-24 20:01:18.555,27.846,7,right,12000,24000,V
5,61,right,False,2024-06-24 20:01:40.642,2024-06-24 20:02:01.222,20.58,68,left,12000,24000,VH
5,62,left,True,2024-06-24 20:02:23.309,2024-06-24 20:02:43.656,20.347,94,left,12000,24000,VH
5,63,left,False,2024-06-24 20:03:05.744,2024-06-24 20:03:21.839,16.095,42,right,12000,24000,VH
5,64,left,True,2024-06-24 20:03:43.910,2024-06-24 20:03:50.689,6.779,38,left,12000,24000,VH
5,65,left,True,2024-06-24 20:04:12.761,2024-06-24 20:04:23.239,10.478,84,left,12000,24000,VH
5,66,right,True,2024-06-24 20:04:45.328,2024-06-24 20:05:02.022,16.694,76,right,12000,24000,VH
5,67,left,True,2024-06-24 20:05:24.110,2024-06-24 20:05:38.189,14.079,24,left,12000,24000,VH
5,68,right,True,2024-06-24 20:06:00.277,2024-06-24 20:06:12.289,12.012,74,right,12000,24000,VH
5,69,right,True,2024-06-24 20:06:34.376,2024-06-24 20:06:49.356,14.98,62,right,12000,24000,VH
5,70,left,True,2024-06-24 20:07:11.444,2024-06-24 20:07:30.923,19.479,52,left,12000,24000,VH
5,71,right,True,2024-06-24 20:07:53.009,2024-06-24 20:08:04.889,11.88,70,right,12000,24000,VH
5,72,left,True,2024-06-24 20:08:26.961,2024-06-24 20:08:36.690,9.729,58,left,12000,24000,VH
5,73,right,True,2024-06-24 20:13:23.666,2024-06-24 20:13:30.474,6.808,64,right,12000,24000,VH
5,74,left,True,2024-06-24 20:13:52.560,2024-06-24 20:14:05.323,12.763,86,left,12000,24000,VH
5,75,right,True,2024-06-24 20:14:27.412,2024-06-24 20:14:44.840,17.428,82,right,12000,24000,VH
5,76,left,True,2024-06-24 20:15:06.929,2024-06-24 20:15:14.424,7.495,28,left,12000,24000,VH
5,77,right,True,2024-06-24 20:15:36.512,2024-06-24 20:15:48.490,11.978,12,right,12000,24000,VH
5,78,left,True,2024-06-24 20:16:10.577,2024-06-24 20:16:33.690,23.113,54,left,12000,24000,VH
5,79,left,True,2024-06-24 20:16:55.777,2024-06-24 20:17:15.391,19.614,66,left,12000,24000,VH
5,80,right,True,2024-06-24 20:17:37.479,2024-06-24 20:17:46.807,9.328,80,right,12000,24000,VH
5,81,left,True,2024-06-24 20:18:08.894,2024-06-24 20:18:24.091,15.197,92,left,12000,24000,VH
5,82,left,True,2024-06-24 20:18:46.178,2024-06-24 20:19:02.207,16.029,90,left,12000,24000,VH
5,83,right,True,2024-06-24 20:19:24.296,2024-06-24 20:19:33.607,9.311,20,right,12000,24000,VH
5,84,left,True,2024-06-24 20:19:55.694,2024-06-24 20:20:03.507,7.813,56,left,12000,24000,VH
5,85,left,True,2024-06-24 20:20:25.577,2024-06-24 20:20:41.824,16.247,85,left,12000,24000,V
5,86,right,True,2024-06-24 20:21:03.878,2024-06-24 20:21:15.508,11.63,81,right,12000,24000,V
5,87,left,True,2024-06-24 20:21:37.579,2024-06-24 20:21:51.175,13.596,41,left,12000,24000,V
5,88,left,False,2024-06-24 20:22:13.229,2024-06-24 20:22:40.074,26.845,21,right,12000,24000,V
5,89,left,True,2024-06-24 20:23:02.145,2024-06-24 20:23:12.858,10.713,17,left,12000,24000,V
5,90,left,True,2024-06-24 20:23:34.929,2024-06-24 20:23:47.141,12.212,13,left,12000,24000,V
5,91,left,False,2024-06-24 20:24:09.195,2024-06-24 20:24:23.875,14.68,69,right,12000,24000,V
5,92,left,True,2024-06-24 20:24:45.944,2024-06-24 20:25:05.091,19.147,89,left,12000,24000,V
5,93,left,True,2024-06-24 20:25:27.144,2024-06-24 20:25:34.891,7.747,59,left,12000,24000,V
5,94,right,True,2024-06-24 20:25:56.960,2024-06-24 20:26:14.225,17.265,53,right,12000,24000,V
5,95,left,True,2024-06-24 20:26:36.277,2024-06-24 20:26:47.508,11.231,95,left,12000,24000,V
5,96,right,True,2024-06-24 20:27:09.561,2024-06-24 20:27:23.592,14.031,65,right,12000,24000,V
6,1,right,True,2024-06-25 10:17:32.824,2024-06-25 10:17:42.931,10.107,44,right,12000,24000,V
6,2,right,True,2024-06-25 10:18:05.016,2024-06-25 10:18:19.998,14.982,22,right,12000,24000,V
6,3,left,True,2024-06-25 10:18:42.097,2024-06-25 10:18:51.198,9.101,42,left,12000,24000,V
6,4,left,False,2024-06-25 10:19:13.279,2024-06-25 10:19:28.364,15.085,12,right,12000,24000,V
6,5,left,True,2024-06-25 10:19:50.445,2024-06-25 10:19:59.898,9.453,92,left,12000,24000,V
6,6,right,True,2024-06-25 10:20:21.999,2024-06-25 10:20:32.798,10.799,48,right,12000,24000,V
6,7,left,True,2024-06-25 10:20:54.881,2024-06-25 10:21:08.214,13.333,94,left,12000,24000,V
6,8,left,True,2024-06-25 10:21:30.313,2024-06-25 10:21:42.448,12.135,74,left,12000,24000,V
6,9,left,False,2024-06-25 10:22:04.528,2024-06-25 10:22:18.448,13.92,10,right,12000,24000,V
6,10,left,True,2024-06-25 10:22:40.531,2024-06-25 10:22:53.999,13.468,82,left,12000,24000,V
6,11,left,False,2024-06-25 10:23:16.097,2024-06-25 10:23:33.215,17.118,24,right,12000,24000,V
6,12,left,True,2024-06-25 10:23:55.298,2024-06-25 10:24:10.431,15.133,16,left,12000,24000,V
6,13,left,True,2024-06-25 10:24:32.536,2024-06-25 10:24:39.981,7.445,19,left,12000,24000,VH
6,14,right,True,2024-06-25 10:25:02.086,2024-06-25 10:25:04.748,2.662,77,right,12000,24000,VH
6,15,left,True,2024-06-25 10:25:26.852,2024-06-25 10:25:36.498,9.646,69,left,12000,24000,VH
6,16,left,True,2024-06-25 10:25:58.601,2024-06-25 10:26:07.215,8.614,87,left,12000,24000,VH
6,17,right,True,2024-06-25 10:26:29.303,2024-06-25 10:26:34.865,5.562,13,right,12000,24000,VH
6,18,left,True,2024-06-25 10:26:56.971,2024-06-25 10:27:08.165,11.194,41,left,12000,24000,VH
6,19,right,False,2024-06-25 10:27:30.270,2024-06-25 10:27:38.281,8.011,7,left,12000,24000,VH
6,20,left,False,2024-06-25 10:28:00.386,2024-06-25 10:28:09.948,9.562,65,right,12000,24000,VH
6,21,left,True,2024-06-25 10:28:32.054,2024-06-25 10:28:49.881,17.827,17,left,12000,24000,VH
6,22,left,True,2024-06-25 10:29:11.985,2024-06-25 10:29:21.348,9.363,63,left,12000,24000,VH
6,23,right,True,2024-06-25 10:29:43.454,2024-06-25 10:29:59.081,15.627,39,right,12000,24000,VH
6,24,right,False,2024-06-25 10:30:21.169,2024-06-25 10:30:32.681,11.512,85,left,12000,24000,VH
6,25,right,True,2024-06-25 10:34:15.953,2024-06-25 10:34:25.032,9.079,30,right,12000,24000,V
6,26,right,True,2024-06-25 10:34:47.097,2024-06-25 10:34:54.732,7.635,38,right,12000,24000,V
6,27,left,True,2024-06-25 10:35:16.812,2024-06-25 10:35:27.648,10.836,58,left,12000,24000,V
6,28,right,True,2024-06-25 10:35:49.729,2024-06-25 10:35:57.265,7.536,90,right,12000,24000,V
6,29,right,True,2024-06-25 10:36:19.329,2024-06-25 10:36:30.248,10.919,88,right,12000,24000,V
6,30,left,True,2024-06-25 10:36:52.347,2024-06-25 10:37:02.715,10.368,80,left,12000,24000,V
6,31,left,True,2024-06-25 10:37:24.778,2024-06-25 10:37:33.748,8.97,68,left,12000,24000,V
6,32,left,False,2024-06-25 10:37:55.852,2024-06-25 10:38:12.149,16.297,28,right,12000,24000,V
6,33,left,True,2024-06-25 10:38:34.229,2024-06-25 10:38:43.765,9.536,52,left,12000,24000,V
6,34,right,True,2024-06-25 10:39:05.866,2024-06-25 10:39:15.915,10.049,18,right,12000,24000,V
6,35,right,True,2024-06-25 10:39:37.994,2024-06-25 10:39:47.332,9.338,56,right,12000,24000,V
6,36,left,True,2024-06-25 10:40:09.414,2024-06-25 10:40:17.799,8.385,66,left,12000,24000,V
6,37,left,True,2024-06-25 10:40:39.904,2024-06-25 10:40:50.565,10.661,75,left,12000,24000,VH
6,38,left,False,2024-06-25 10:41:12.675,2024-06-25 10:41:21.399,8.724,43,right,12000,24000,VH
6,39,left,True,2024-06-25 10:41:43.486,2024-06-25 10:42:03.715,20.229,49,left,12000,24000,VH
6,40,left,False,2024-06-25 10:42:25.804,2024-06-25 10:42:39.099,13.295,57,right,12000,24000,VH
6,41,left,True,2024-06-25 10:43:01.185,2024-06-25 10:43:10.899,9.714,95,left,12000,24000,VH
6,42,left,False,2024-06-25 10:43:33.004,2024-06-25 10:43:52.082,19.078,15,right,12000,24000,VH
6,43,left,True,2024-06-25 10:44:14.185,2024-06-25 10:44:23.149,8.964,89,left,12000,24000,VH
6,44,right,True,2024-06-25 10:44:45.254,2024-06-25 10:44:51.199,5.945,81,right,12000,24000,VH
6,45,left,True,2024-06-25 10:45:13.286,2024-06-25 10:45:28.866,15.58,9,left,12000,24000,VH
6,46,right,True,2024-06-25 10:45:50.954,2024-06-25 10:45:59.299,8.345,73,right,12000,24000,VH
6,47,left,True,2024-06-25 10:46:21.386,2024-06-25 10:46:35.216,13.83,1,left,12000,24000,VH
6,48,right,True,2024-06-25 10:46:57.320,2024-06-25 10:47:10.149,12.829,67,right,12000,24000,VH
6,49,left,False,2024-06-25 10:52:19.737,2024-06-25 10:52:34.300,14.563,21,right,12000,24000,VH
6,50,left,True,2024-06-25 10:52:56.407,2024-06-25 10:53:08.633,12.226,31,left,12000,24000,VH
6,51,right,True,2024-06-25 10:53:30.740,2024-06-25 10:53:42.099,11.359,35,right,12000,24000,VH
6,52,right,True,2024-06-25 10:54:04.187,2024-06-25 10:54:15.983,11.796,83,right,12000,24000,VH
6,53,left,True,2024-06-25 10:54:38.088,2024-06-25 10:54:49.599,11.511,47,left,12000,24000,VH
6,54,left,True,2024-06-25 10:55:11.704,2024-06-25 10:55:19.883,8.179,71,left,12000,24000,VH
6,55,right,True,2024-06-25 10:55:41.970,2024-06-25 10:55:53.899,11.929,5,right,12000,24000,VH
6,56,left,True,2024-06-25 10:56:15.988,2024-06-25 10:56:41.133,25.145,61,left,12000,24000,VH
6,57,left,True,2024-06-25 10:57:03.237,2024-06-25 10:57:20.450,17.213,91,left,12000,24000,VH
6,58,right,True,2024-06-25 10:57:42.556,2024-06-25 10:57:46.800,4.244,29,right,12000,24000,VH
6,59,right,True,2024-06-25 10:58:08.904,2024-06-25 10:58:16.983,8.079,53,right,12000,24000,VH
6,60,left,True,2024-06-25 10:58:39.090,2024-06-25 10:58:45.850,6.76,11,left,12000,24000,VH
6,61,left,True,2024-06-25 10:59:07.950,2024-06-25 10:59:22.133,14.183,60,left,12000,24000,V
6,62,right,True,2024-06-25 10:59:44.213,2024-06-25 10:59:59.050,14.837,62,right,12000,24000,V
6,63,left,True,2024-06-25 11:00:21.151,2024-06-25 11:00:30.533,9.382,40,left,12000,24000,V
6,64,left,True,2024-06-25 11:00:52.631,2024-06-25 11:01:02.383,9.752,8,left,12000,24000,V
6,65,right,True,2024-06-25 11:01:24.467,2024-06-25 11:01:33.600,9.133,32,right,12000,24000,V
6,66,left,False,2024-06-25 11:01:55.703,2024-06-25 11:02:19.333,23.63,36,right,12000,24000,V
6,67,left,True,2024-06-25 11:02:41.398,2024-06-25 11:02:56.367,14.969,6,left,12000,24000,V
6,68,left,False,2024-06-25 11:03:18.467,2024-06-25 11:03:41.333,22.866,84,right,12000,24000,V
6,69,left,True,2024-06-25 11:04:03.434,2024-06-25 11:04:20.100,16.666,26,left,12000,24000,V
6,70,left,True,2024-06-25 11:04:42.181,2024-06-25 11:04:50.000,7.819,64,left,12000,24000,V
6,71,right,True,2024-06-25 11:05:12.100,2024-06-25 11:05:17.500,5.4,78,right,12000,24000,V
6,72,left,True,2024-06-25 11:05:39.599,2024-06-25 11:05:48.750,9.151,14,left,12000,24000,V
6,73,left,True,2024-06-25 11:12:55.777,2024-06-25 11:13:16.707,20.93,23,left,12000,24000,VH
6,74,right,True,2024-06-25 11:13:38.804,2024-06-25 11:13:48.667,9.863,59,right,12000,24000,VH
6,75,left,True,2024-06-25 11:14:10.756,2024-06-25 11:14:23.584,12.828,37,left,12000,24000,VH
6,76,right,True,2024-06-25 11:14:45.671,2024-06-25 11:14:58.617,12.946,51,right,12000,24000,VH
6,77,left,True,2024-06-25 11:15:20.722,2024-06-25 11:15:32.934,12.212,55,left,12000,24000,VH
6,78,right,True,2024-06-25 11:15:55.040,2024-06-25 11:16:04.251,9.211,45,right,12000,24000,VH
6,79,right,True,2024-06-25 11:16:26.357,2024-06-25 11:16:33.584,7.227,27,right,12000,24000,VH
6,80,left,True,2024-06-25 11:16:55.692,2024-06-25 11:17:11.817,16.125,33,left,12000,24000,VH
6,81,right,True,2024-06-25 11:17:33.923,2024-06-25 11:17:38.601,4.678,79,right,12000,24000,VH
6,82,right,True,2024-06-25 11:18:00.704,2024-06-25 11:18:15.651,14.947,93,right,12000,24000,VH
6,83,left,True,2024-06-25 11:18:37.741,2024-06-25 11:18:48.184,10.443,25,left,12000,24000,VH
6,84,right,True,2024-06-25 11:19:10.288,2024-06-25 11:19:29.868,19.58,3,right,12000,24000,VH
6,85,right,True,2024-06-25 11:19:51.948,2024-06-25 11:19:58.434,6.486,50,right,12000,24000,V
6,86,left,True,2024-06-25 11:20:20.532,2024-06-25 11:20:34.918,14.386,86,left,12000,24000,V
6,87,right,True,2024-06-25 11:20:57.001,2024-06-25 11:21:07.868,10.867,54,right,12000,24000,V
6,88,right,True,2024-06-25 11:21:29.948,2024-06-25 11:21:39.218,9.27,4,right,12000,24000,V
6,89,left,True,2024-06-25 11:22:01.299,2024-06-25 11:22:14.851,13.552,20,left,12000,24000,V
6,90,right,True,2024-06-25 11:22:36.934,2024-06-25 11:22:47.851,10.917,76,right,12000,24000,V
6,91,left,True,2024-06-25 11:23:09.932,2024-06-25 11:23:18.235,8.303,70,left,12000,24000,V
6,92,left,False,2024-06-25 11:23:40.299,2024-06-25 11:24:01.835,21.536,96,right,12000,24000,V
6,93,right,True,2024-06-25 11:24:23.919,2024-06-25 11:24:39.751,15.832,46,right,12000,24000,V
6,94,left,True,2024-06-25 11:25:01.834,2024-06-25 11:25:15.585,13.751,72,left,12000,24000,V
6,95,right,True,2024-06-25 11:25:37.648,2024-06-25 11:25:50.101,12.453,2,right,12000,24000,V
6,96,left,True,2024-06-25 11:26:12.186,2024-06-25 11:26:21.485,9.299,34,left,12000,24000,V
7,1,right,True,2024-06-25 13:18:37.345,2024-06-25 13:18:59.169,21.824,77,right,12000,24000,V
7,2,right,False,2024-06-25 13:19:21.241,2024-06-25 13:19:46.452,25.211,35,left,12000,24000,V
7,3,left,False,2024-06-25 13:20:08.506,2024-06-25 13:20:31.336,22.83,63,right,12000,24000,V
7,4,left,True,2024-06-25 13:20:53.406,2024-06-25 13:21:12.952,19.546,71,left,12000,24000,V
7,5,left,False,2024-06-25 13:21:35.024,2024-06-25 13:22:04.119,29.095,23,right,12000,24000,V
7,6,left,False,2024-06-25 13:22:26.189,2024-06-25 13:22:46.836,20.647,55,right,12000,24000,V
7,7,right,False,2024-06-25 13:25:56.306,2024-06-25 13:26:09.836,13.53,53,left,12000,24000,V
7,8,right,False,2024-06-25 13:26:31.908,2024-06-25 13:26:46.703,14.795,39,left,12000,24000,V
7,9,right,True,2024-06-25 13:27:08.773,2024-06-25 13:27:30.687,21.914,93,right,12000,24000,V
7,10,right,False,2024-06-25 13:27:52.756,2024-06-25 13:28:12.103,19.347,7,left,12000,24000,V
7,11,left,True,2024-06-25 13:28:34.173,2024-06-25 13:28:53.436,19.263,67,left,12000,24000,V
7,12,left,False,2024-06-25 13:29:15.508,2024-06-25 13:29:40.720,25.212,57,right,12000,24000,V
7,13,right,False,2024-06-25 13:30:02.808,2024-06-25 13:30:22.686,19.878,82,left,12000,24000,VH
7,14,left,True,2024-06-25 13:30:44.777,2024-06-25 13:30:57.120,12.343,36,left,12000,24000,VH
7,15,right,True,2024-06-25 13:31:19.210,2024-06-25 13:31:41.687,22.477,40,right,12000,24000,VH
7,16,left,True,2024-06-25 13:32:03.774,2024-06-25 13:32:17.170,13.396,66,left,12000,24000,VH
7,17,left,True,2024-06-25 13:32:39.258,2024-06-25 13:32:50.920,11.662,8,left,12000,24000,VH
7,18,left,False,2024-06-25 13:33:12.992,2024-06-25 13:33:25.353,12.361,24,right,12000,24000,VH
7,19,left,True,2024-06-25 13:36:38.947,2024-06-25 13:36:46.355,7.408,54,left,12000,24000,VH
7,20,right,False,2024-06-25 13:37:08.427,2024-06-25 13:37:22.288,13.861,76,left,12000,24000,VH
7,21,left,False,2024-06-25 13:37:44.359,2024-06-25 13:38:01.554,17.195,16,right,12000,24000,VH
7,22,right,False,2024-06-25 13:38:23.642,2024-06-25 13:38:39.905,16.263,70,left,12000,24000,VH
7,23,left,True,2024-06-25 13:39:01.995,2024-06-25 13:39:19.255,17.26,42,left,12000,24000,VH
7,24,left,False,2024-06-25 13:39:41.325,2024-06-25 13:39:51.671,10.346,68,right,12000,24000,VH
7,25,right,True,2024-06-25 13:40:13.744,2024-06-25 13:40:34.922,21.178,47,right,12000,24000,V
7,26,left,True,2024-06-25 13:40:56.992,2024-06-25 13:41:15.288,18.296,61,left,12000,24000,V
7,27,left,True,2024-06-25 13:41:37.359,2024-06-25 13:41:53.172,15.813,5,left,12000,24000,V
7,28,left,False,2024-06-25 13:42:15.243,2024-06-25 13:42:29.439,14.196,17,right,12000,24000,V
7,29,left,False,2024-06-25 13:42:51.495,2024-06-25 13:43:06.289,14.794,31,right,12000,24000,V
7,30,left,True,2024-06-25 13:43:28.359,2024-06-25 13:43:46.905,18.546,73,left,12000,24000,V
7,31,left,False,2024-06-25 13:47:30.749,2024-06-25 13:47:45.107,14.358,87,right,12000,24000,V
7,32,right,False,2024-06-25 13:48:07.161,2024-06-25 13:48:16.606,9.445,83,left,12000,24000,V
7,33,left,True,2024-06-25 13:48:38.677,2024-06-25 13:49:00.040,21.363,51,left,12000,24000,V
7,34,right,True,2024-06-25 13:49:22.112,2024-06-25 13:49:37.790,15.678,41,right,12000,24000,V
7,35,right,True,2024-06-25 13:49:59.864,2024-06-25 13:50:17.540,17.676,43,right,12000,24000,V
7,36,left,True,2024-06-25 13:50:39.611,2024-06-25 13:50:52.074,12.463,3,left,12000,24000,V
7,37,left,False,2024-06-25 13:51:14.161,2024-06-25 13:51:29.157,14.996,96,right,12000,24000,VH
7,38,left,False,2024-06-25 13:51:51.246,2024-06-25 13:52:02.491,11.245,20,right,12000,24000,VH
7,39,left,True,2024-06-25 13:52:24.580,2024-06-25 13:52:33.874,9.294,48,left,12000,24000,VH
7,40,right,True,2024-06-25 13:52:55.963,2024-06-25 13:53:05.507,9.544,60,right,12000,24000,VH
7,41,left,True,2024-06-25 13:53:27.596,2024-06-25 13:53:44.224,16.628,74,left,12000,24000,VH
7,42,left,False,2024-06-25 13:54:06.312,2024-06-25 13:54:27.291,20.979,86,right,12000,24000,VH
7,43,right,True,2024-06-25 13:54:49.378,2024-06-25 13:55:08.174,18.796,80,right,12000,24000,VH
7,44,left,True,2024-06-25 13:55:30.265,2024-06-25 13:55:36.808,6.543,28,left,12000,24000,VH
7,45,right,True,2024-06-25 13:55:58.895,2024-06-25 13:56:03.508,4.613,12,right,12000,24000,VH
7,46,left,True,2024-06-25 13:56:25.581,2024-06-25 13:56:38.758,13.177,78,left,12000,24000,VH
7,47,right,True,2024-06-25 13:57:00.847,2024-06-25 13:57:13.075,12.228,2,right,12000,24000,VH
7,48,right,False,2024-06-25 13:57:35.163,2024-06-25 13:57:48.025,12.862,90,left,12000,24000,VH
7,49,left,True,2024-06-25 14:04:53.487,2024-06-25 14:05:02.697,9.21,44,left,12000,24000,VH
7,50,left,False,2024-06-25 14:05:24.786,2024-06-25 14:05:42.213,17.427,52,right,12000,24000,VH
7,51,right,True,2024-06-25 14:06:04.286,2024-06-25 14:06:29.564,25.278,4,right,12000,24000,VH
7,52,right,False,2024-06-25 14:06:51.637,2024-06-25 14:07:03.413,11.776,84,left,12000,24000,VH
7,53,left,True,2024-06-25 14:07:25.488,2024-06-25 14:07:34.530,9.042,30,left,12000,24000,VH
7,54,right,True,2024-06-25 14:07:56.621,2024-06-25 14:08:05.847,9.226,26,right,12000,24000,VH
7,55,right,True,2024-06-25 14:08:27.937,2024-06-25 14:08:39.244,11.307,50,right,12000,24000,VH
7,56,right,False,2024-06-25 14:09:01.332,2024-06-25 14:09:18.511,17.179,92,left,12000,24000,VH
7,57,left,False,2024-06-25 14:09:40.582,2024-06-25 14:09:54.678,14.096,10,right,12000,24000,VH
7,58,left,True,2024-06-25 14:10:16.767,2024-06-25 14:10:38.361,21.594,22,left,12000,24000,VH
7,59,left,False,2024-06-25 14:11:00.448,2024-06-25 14:11:23.244,22.796,62,right,12000,24000,VH
7,60,right,True,2024-06-25 14:11:45.332,2024-06-25 14:11:51.511,6.179,56,right,12000,24000,VH
7,61,left,True,2024-06-25 14:12:13.565,2024-06-25 14:12:30.411,16.846,49,left,12000,24000,V
7,62,left,True,2024-06-25 14:12:52.484,2024-06-25 14:13:07.461,14.977,45,left,12000,24000,V
7,63,right,True,2024-06-25 14:13:29.534,2024-06-25 14:13:41.895,12.361,29,right,12000,24000,V
7,64,right,False,2024-06-25 14:14:03.967,2024-06-25 14:14:11.528,7.561,75,left,12000,24000,V
7,65,left,True,2024-06-25 14:14:33.601,2024-06-25 14:14:50.345,16.744,37,left,12000,24000,V
7,66,right,True,2024-06-25 14:15:12.416,2024-06-25 14:15:22.712,10.296,1,right,12000,24000,V
7,67,left,True,2024-06-25 14:15:44.767,2024-06-25 14:15:53.195,8.428,9,left,12000,24000,V
7,68,left,True,2024-06-25 14:16:15.267,2024-06-25 14:16:24.362,9.095,79,left,12000,24000,V
7,69,left,False,2024-06-25 14:16:46.431,2024-06-25 14:17:00.012,13.581,85,right,12000,24000,V
7,70,left,True,2024-06-25 14:17:22.084,2024-06-25 14:17:29.445,7.361,27,left,12000,24000,V
7,71,left,True,2024-06-25 14:17:51.516,2024-06-25 14:18:13.912,22.396,69,left,12000,24000,V
7,72,left,False,2024-06-25 14:18:35.983,2024-06-25 14:18:54.729,18.746,91,right,12000,24000,V
7,73,left,False,2024-06-25 14:31:27.309,2024-06-25 14:31:42.432,15.123,21,right,12000,24000,V
7,74,left,True,2024-06-25 14:32:04.502,2024-06-25 14:32:13.332,8.83,59,left,12000,24000,V
7,75,right,True,2024-06-25 14:32:35.405,2024-06-25 14:32:43.815,8.41,33,right,12000,24000,V
7,76,right,True,2024-06-25 14:33:05.886,2024-06-25 14:33:25.632,19.746,11,right,12000,24000,V
7,77,left,True,2024-06-25 14:33:47.689,2024-06-25 14:34:00.165,12.476,81,left,12000,24000,V
7,78,right,True,2024-06-25 14:34:22.235,2024-06-25 14:34:47.699,25.464,89,right,12000,24000,V
7,79,right,True,2024-06-25 14:35:09.770,2024-06-25 14:35:35.349,25.579,13,right,12000,24000,V
7,80,right,False,2024-06-25 14:35:57.421,2024-06-25 14:36:22.849,25.428,15,left,12000,24000,V
7,81,left,False,2024-06-25 14:36:44.905,2024-06-25 14:37:10.433,25.528,19,right,12000,24000,V
7,82,left,False,2024-06-25 14:37:32.503,2024-06-25 14:37:51.583,19.08,65,right,12000,24000,V
7,83,right,False,2024-06-25 14:38:13.654,2024-06-25 14:38:28.516,14.862,25,left,12000,24000,V
7,84,right,False,2024-06-25 14:38:50.587,2024-06-25 14:39:02.033,11.446,95,left,12000,24000,V
7,85,right,True,2024-06-25 14:39:24.120,2024-06-25 14:39:44.700,20.58,64,right,12000,24000,VH
7,86,right,True,2024-06-25 14:40:06.788,2024-06-25 14:40:14.416,7.628,6,right,12000,24000,VH
7,87,left,True,2024-06-25 14:40:36.504,2024-06-25 14:40:44.166,7.662,72,left,12000,24000,VH
7,88,left,True,2024-06-25 14:41:06.253,2024-06-25 14:41:26.350,20.097,58,left,12000,24000,VH
7,89,right,True,2024-06-25 14:41:48.437,2024-06-25 14:41:58.683,10.246,94,right,12000,24000,VH
7,90,left,True,2024-06-25 14:42:20.773,2024-06-25 14:42:29.683,8.91,32,left,12000,24000,VH
7,91,left,False,2024-06-25 14:42:51.775,2024-06-25 14:43:07.983,16.208,34,right,12000,24000,VH
7,92,right,True,2024-06-25 14:43:30.072,2024-06-25 14:43:34.183,4.111,38,right,12000,24000,VH
7,93,left,True,2024-06-25 14:43:56.271,2024-06-25 14:44:17.250,20.979,14,left,12000,24000,VH
7,94,right,True,2024-06-25 14:44:39.340,2024-06-25 14:44:43.534,4.194,46,right,12000,24000,VH
7,95,right,True,2024-06-25 14:45:05.623,2024-06-25 14:45:17.650,12.027,18,right,12000,24000,VH
7,96,left,True,2024-06-25 14:45:39.720,2024-06-25 14:45:57.384,17.664,88,left,12000,24000,VH
8,1,left,False,2024-06-25 15:13:29.547,2024-06-25 15:13:42.838,13.291,93,right,12000,24000,VH
8,2,left,True,2024-06-25 15:14:04.926,2024-06-25 15:14:25.271,20.345,23,left,12000,24000,VH
8,3,left,True,2024-06-25 15:14:47.358,2024-06-25 15:15:00.154,12.796,7,left,12000,24000,VH
8,4,right,True,2024-06-25 15:15:22.242,2024-06-25 15:15:34.921,12.679,61,right,12000,24000,VH
8,5,right,False,2024-06-25 15:15:56.992,2024-06-25 15:16:11.554,14.562,59,left,12000,24000,VH
8,6,left,True,2024-06-25 15:16:33.642,2024-06-25 15:16:49.454,15.812,1,left,12000,24000,VH
8,7,right,True,2024-06-25 15:17:11.525,2024-06-25 15:17:24.088,12.563,53,right,12000,24000,VH
8,8,right,True,2024-06-25 15:17:46.176,2024-06-25 15:17:58.904,12.728,81,right,12000,24000,VH
8,9,right,False,2024-06-25 15:18:20.992,2024-06-25 15:18:33.738,12.746,89,left,12000,24000,VH
8,10,left,False,2024-06-25 15:18:55.829,2024-06-25 15:19:15.455,19.626,45,right,12000,24000,VH
8,11,right,True,2024-06-25 15:19:37.542,2024-06-25 15:19:49.788,12.246,85,right,12000,24000,VH
8,12,right,False,2024-06-25 15:20:11.878,2024-06-25 15:20:29.155,17.277,35,left,12000,24000,VH
8,13,right,True,2024-06-25 15:20:51.212,2024-06-25 15:21:02.088,10.876,28,right,12000,24000,V
8,14,right,False,2024-06-25 15:21:24.158,2024-06-25 15:21:44.238,20.08,92,left,12000,24000,V
8,15,right,True,2024-06-25 15:22:06.311,2024-06-25 15:22:16.055,9.744,46,right,12000,24000,V
8,16,left,False,2024-06-25 15:22:38.125,2024-06-25 15:22:59.072,20.947,68,right,12000,24000,V
8,17,left,True,2024-06-25 15:23:21.144,2024-06-25 15:23:35.522,14.378,18,left,12000,24000,V
8,18,right,True,2024-06-25 15:23:57.596,2024-06-25 15:24:07.139,9.543,34,right,12000,24000,V
8,19,right,True,2024-06-25 15:24:29.212,2024-06-25 15:24:42.489,13.277,32,right,12000,24000,V
8,20,left,True,2024-06-25 15:25:04.561,2024-06-25 15:25:17.089,12.528,82,left,12000,24000,V
8,21,right,True,2024-06-25 15:25:39.161,2024-06-25 15:25:45.705,6.544,78,right,12000,24000,V
8,22,left,True,2024-06-25 15:26:07.777,2024-06-25 15:26:17.022,9.245,84,left,12000,24000,V
8,23,left,True,2024-06-25 15:26:39.077,2024-06-25 15:26:51.139,12.062,6,left,12000,24000,V
8,24,left,False,2024-06-25 15:27:13.209,2024-06-25 15:27:25.789,12.58,52,right,12000,24000,V
8,25,right,False,2024-06-25 15:32:00.166,2024-06-25 15:32:14.073,13.907,44,left,12000,24000,V
8,26,right,True,2024-06-25 15:32:36.143,2024-06-25 15:32:44.423,8.28,80,right,12000,24000,V
8,27,left,True,2024-06-25 15:33:06.493,2024-06-25 15:33:21.890,15.397,94,left,12000,24000,V
8,28,right,False,2024-06-25 15:33:43.946,2024-06-25 15:33:57.440,13.494,48,left,12000,24000,V
8,29,right,True,2024-06-25 15:34:19.513,2024-06-25 15:34:29.423,9.91,40,right,12000,24000,V
8,30,right,False,2024-06-25 15:34:51.494,2024-06-25 15:35:04.607,13.113,72,left,12000,24000,V
8,31,right,True,2024-06-25 15:35:26.678,2024-06-25 15:35:36.807,10.129,10,right,12000,24000,V
8,32,right,False,2024-06-25 15:35:58.878,2024-06-25 15:36:10.173,11.295,58,left,12000,24000,V
8,33,right,False,2024-06-25 15:36:32.245,2024-06-25 15:36:42.924,10.679,50,left,12000,24000,V
8,34,left,False,2024-06-25 15:37:04.978,2024-06-25 15:37:26.240,21.262,70,right,12000,24000,V
8,35,right,True,2024-06-25 15:37:48.313,2024-06-25 15:38:00.557,12.244,42,right,12000,24000,V
8,36,left,True,2024-06-25 15:38:22.628,2024-06-25 15:38:31.690,9.062,60,left,12000,24000,V
8,37,left,True,2024-06-25 15:38:53.777,2024-06-25 15:39:03.240,9.463,63,left,12000,24000,VH
8,38,right,True,2024-06-25 15:39:25.330,2024-06-25 15:39:35.940,10.61,33,right,12000,24000,VH
8,39,right,False,2024-06-25 15:39:58.028,2024-06-25 15:40:08.307,10.279,37,left,12000,24000,VH
8,40,left,True,2024-06-25 15:40:30.378,2024-06-25 15:40:42.224,11.846,11,left,12000,24000,VH
8,41,right,True,2024-06-25 15:41:04.312,2024-06-25 15:41:13.357,9.045,41,right,12000,24000,VH
8,42,left,True,2024-06-25 15:41:35.429,2024-06-25 15:41:47.774,12.345,9,left,12000,24000,VH
8,43,left,False,2024-06-25 15:42:09.862,2024-06-25 15:42:25.908,16.046,13,right,12000,24000,VH
8,44,right,True,2024-06-25 15:42:47.995,2024-06-25 15:42:58.174,10.179,75,right,12000,24000,VH
8,45,right,False,2024-06-25 15:43:20.262,2024-06-25 15:43:30.874,10.612,21,left,12000,24000,VH
8,46,left,False,2024-06-25 15:43:52.961,2024-06-25 15:44:03.891,10.93,5,right,12000,24000,VH
8,47,right,True,2024-06-25 15:44:25.979,2024-06-25 15:44:34.691,8.712,77,right,12000,24000,VH
8,48,right,False,2024-06-25 15:44:56.762,2024-06-25 15:45:15.974,19.212,71,left,12000,24000,VH
8,49,right,True,2024-06-25 15:56:09.485,2024-06-25 15:56:19.176,9.691,96,right,12000,24000,V
8,50,right,True,2024-06-25 15:56:41.248,2024-06-25 15:56:50.359,9.111,74,right,12000,24000,V
8,51,left,True,2024-06-25 15:57:12.429,2024-06-25 15:57:24.776,12.347,56,left,12000,24000,V
8,52,left,False,2024-06-25 15:57:46.845,2024-06-25 15:58:01.076,14.231,2,right,12000,24000,V
8,53,right,True,2024-06-25 15:58:23.150,2024-06-25 15:58:34.643,11.493,36,right,12000,24000,V
8,54,left,True,2024-06-25 15:58:56.715,2024-06-25 15:59:08.259,11.544,16,left,12000,24000,V
8,55,left,False,2024-06-25 15:59:30.316,2024-06-25 15:59:44.293,13.977,24,right,12000,24000,V
8,56,left,True,2024-06-25 16:00:06.364,2024-06-25 16:00:16.993,10.629,12,left,12000,24000,V
8,57,right,True,2024-06-25 16:00:39.063,2024-06-25 16:00:48.176,9.113,66,right,12000,24000,V
8,58,right,False,2024-06-25 16:01:10.248,2024-06-25 16:01:16.460,6.212,14,left,12000,24000,V
8,59,left,False,2024-06-25 16:01:38.531,2024-06-25 16:01:52.126,13.595,54,right,12000,24000,V
8,60,left,True,2024-06-25 16:02:14.180,2024-06-25 16:02:27.860,13.68,62,left,12000,24000,V
8,61,left,True,2024-06-25 16:02:49.932,2024-06-25 16:02:58.560,8.628,19,left,12000,24000,VH
8,62,right,True,2024-06-25 16:03:20.633,2024-06-25 16:03:29.260,8.627,47,right,12000,24000,VH
8,63,left,True,2024-06-25 16:03:51.349,2024-06-25 16:04:06.027,14.678,39,left,12000,24000,VH
8,64,right,True,2024-06-25 16:04:28.099,2024-06-25 16:04:45.143,17.044,27,right,12000,24000,VH
8,65,right,True,2024-06-25 16:05:07.216,2024-06-25 16:05:14.543,7.327,25,right,12000,24000,VH
8,66,left,True,2024-06-25 16:05:36.634,2024-06-25 16:05:46.443,9.809,79,left,12000,24000,VH
8,67,left,True,2024-06-25 16:06:08.516,2024-06-25 16:06:16.494,7.978,83,left,12000,24000,VH
8,68,right,True,2024-06-25 16:06:38.582,2024-06-25 16:06:46.177,7.595,29,right,12000,24000,VH
8,69,right,True,2024-06-25 16:07:08.264,2024-06-25 16:07:19.844,11.58,69,right,12000,24000,VH
8,70,left,True,2024-06-25 16:07:41.932,2024-06-25 16:07:52.327,10.395,17,left,12000,24000,VH
8,71,right,True,2024-06-25 16:08:14.414,2024-06-25 16:08:25.810,11.396,95,right,12000,24000,VH
8,72,left,True,2024-06-25 16:08:47.897,2024-06-25 16:09:02.344,14.447,91,left,12000,24000,VH
8,73,right,True,2024-06-25 16:29:24.479,2024-06-25 16:29:32.685,8.206,15,right,12000,24000,VH
8,74,right,True,2024-06-25 16:29:54.772,2024-06-25 16:30:05.018,10.246,55,right,12000,24000,VH
8,75,right,False,2024-06-25 16:30:27.090,2024-06-25 16:30:38.168,11.078,49,left,12000,24000,VH
8,76,right,True,2024-06-25 16:31:00.255,2024-06-25 16:31:08.952,8.697,3,right,12000,24000,VH
8,77,right,True,2024-06-25 16:31:31.043,2024-06-25 16:31:43.002,11.959,31,right,12000,24000,VH
8,78,left,True,2024-06-25 16:32:05.090,2024-06-25 16:32:15.085,9.995,87,left,12000,24000,VH
8,79,left,True,2024-06-25 16:32:37.157,2024-06-25 16:32:48.869,11.712,57,left,12000,24000,VH
8,80,right,True,2024-06-25 16:33:10.956,2024-06-25 16:33:20.802,9.846,65,right,12000,24000,VH
8,81,left,True,2024-06-25 16:33:42.893,2024-06-25 16:33:55.935,13.042,43,left,12000,24000,VH
8,82,left,True,2024-06-25 16:34:18.025,2024-06-25 16:34:28.335,10.31,73,left,12000,24000,VH
8,83,right,True,2024-06-25 16:34:50.423,2024-06-25 16:35:00.652,10.229,67,right,12000,24000,VH
8,84,left,True,2024-06-25 16:35:22.724,2024-06-25 16:35:30.802,8.078,51,left,12000,24000,VH
8,85,right,False,2024-06-25 16:35:52.874,2024-06-25 16:36:04.736,11.862,64,left,12000,24000,V
8,86,right,True,2024-06-25 16:36:26.806,2024-06-25 16:36:35.502,8.696,4,right,12000,24000,V
8,87,right,False,2024-06-25 16:36:57.574,2024-06-25 16:37:12.119,14.545,22,left,12000,24000,V
8,88,left,True,2024-06-25 16:37:34.189,2024-06-25 16:37:53.069,18.88,88,left,12000,24000,V
8,89,right,True,2024-06-25 16:38:15.139,2024-06-25 16:38:24.086,8.947,90,right,12000,24000,V
8,90,left,True,2024-06-25 16:38:46.157,2024-06-25 16:39:00.586,14.429,86,left,12000,24000,V
8,91,right,False,2024-06-25 16:39:22.658,2024-06-25 16:39:29.836,7.178,20,left,12000,24000,V
8,92,right,True,2024-06-25 16:39:51.907,2024-06-25 16:40:02.453,10.546,8,right,12000,24000,V
8,93,left,True,2024-06-25 16:40:24.509,2024-06-25 16:40:34.786,10.277,26,left,12000,24000,V
8,94,right,True,2024-06-25 16:40:56.860,2024-06-25 16:41:05.719,8.859,30,right,12000,24000,V
8,95,left,True,2024-06-25 16:41:27.775,2024-06-25 16:41:39.519,11.744,38,left,12000,24000,V
8,96,right,True,2024-06-25 16:42:01.575,2024-06-25 16:42:07.353,5.778,76,right,12000,24000,V
9,1,left,True,2024-06-25 17:15:58.882,2024-06-25 17:16:09.140,10.258,79,left,12000,24000,V
9,2,left,False,2024-06-25 17:16:31.211,2024-06-25 17:16:56.606,25.395,27,right,12000,24000,V
9,3,right,True,2024-06-25 17:17:18.676,2024-06-25 17:17:32.289,13.613,59,right,12000,24000,V
9,4,right,False,2024-06-25 17:17:54.361,2024-06-25 17:18:19.723,25.362,25,left,12000,24000,V
9,5,left,False,2024-06-25 17:18:41.793,2024-06-25 17:19:07.273,25.48,5,right,12000,24000,V
9,6,right,False,2024-06-25 17:19:29.346,2024-06-25 17:19:54.690,25.344,33,left,12000,24000,V
9,7,right,True,2024-06-25 17:20:16.762,2024-06-25 17:20:38.273,21.511,29,right,12000,24000,V
9,8,right,False,2024-06-25 17:21:00.345,2024-06-25 17:21:25.706,25.361,19,left,12000,24000,V
9,9,right,False,2024-06-25 17:21:47.777,2024-06-25 17:22:09.123,21.346,9,left,12000,24000,V
9,10,left,False,2024-06-25 17:22:31.196,2024-06-25 17:22:56.540,25.344,21,right,12000,24000,V
9,11,right,True,2024-06-25 17:23:18.611,2024-06-25 17:23:27.990,9.379,73,right,12000,24000,V
9,12,left,True,2024-06-25 17:23:50.061,2024-06-25 17:24:15.307,25.246,1,left,12000,24000,V
9,13,right,True,2024-06-25 17:24:37.395,2024-06-25 17:24:54.057,16.662,12,right,12000,24000,VH
9,14,right,True,2024-06-25 17:25:16.145,2024-06-25 17:25:39.457,23.312,4,right,12000,24000,VH
9,15,right,False,2024-06-25 17:26:01.547,2024-06-25 17:26:19.057,17.51,18,left,12000,24000,VH
9,16,right,False,2024-06-25 17:26:41.128,2024-06-25 17:27:06.524,25.396,56,left,12000,24000,VH
9,17,left,False,2024-06-25 17:27:28.598,2024-06-25 17:27:53.790,25.192,30,right,12000,24000,VH
9,18,right,True,2024-06-25 17:28:15.879,2024-06-25 17:28:28.074,12.195,70,right,12000,24000,VH
9,19,left,True,2024-06-25 17:28:50.163,2024-06-25 17:28:59.641,9.478,82,left,12000,24000,VH
9,20,left,True,2024-06-25 17:29:21.730,2024-06-25 17:29:47.557,25.827,32,left,12000,24000,VH
9,21,right,True,2024-06-25 17:30:09.628,2024-06-25 17:30:20.841,11.213,52,right,12000,24000,VH
9,22,left,True,2024-06-25 17:30:42.929,2024-06-25 17:30:54.774,11.845,76,left,12000,24000,VH
9,23,left,True,2024-06-25 17:31:16.861,2024-06-25 17:31:39.891,23.03,66,left,12000,24000,VH
9,24,left,False,2024-06-25 17:32:01.961,2024-06-25 17:32:27.091,25.13,86,right,12000,24000,VH
9,25,left,True,2024-06-25 17:34:52.218,2024-06-25 17:35:17.558,25.34,47,left,12000,24000,V
9,26,left,True,2024-06-25 17:35:39.628,2024-06-25 17:36:00.858,21.23,65,left,12000,24000,V
9,27,left,False,2024-06-25 17:36:22.929,2024-06-25 17:36:48.191,25.262,15,right,12000,24000,V
9,28,left,True,2024-06-25 17:37:10.262,2024-06-25 17:37:35.642,25.38,51,left,12000,24000,V
9,29,right,True,2024-06-25 17:37:57.695,2024-06-25 17:38:19.958,22.263,89,right,12000,24000,V
9,30,left,True,2024-06-25 17:38:42.028,2024-06-25 17:39:07.325,25.297,67,left,12000,24000,V
9,31,left,True,2024-06-25 17:39:29.395,2024-06-25 17:39:46.375,16.98,49,left,12000,24000,V
9,32,left,False,2024-06-25 17:40:08.447,2024-06-25 17:40:33.709,25.262,39,right,12000,24000,V
9,33,left,True,2024-06-25 17:40:55.779,2024-06-25 17:41:21.142,25.363,69,left,12000,24000,V
9,34,right,True,2024-06-25 17:41:43.213,2024-06-25 17:42:08.509,25.296,7,right,12000,24000,V
9,35,left,False,2024-06-25 17:42:30.578,2024-06-25 17:42:55.742,25.164,53,right,12000,24000,V
9,36,left,True,2024-06-25 17:43:17.812,2024-06-25 17:43:32.609,14.797,55,left,12000,24000,V
9,37,right,True,2024-06-25 17:43:54.696,2024-06-25 17:44:19.776,25.08,64,right,12000,24000,VH
9,38,left,True,2024-06-25 17:44:41.863,2024-06-25 17:45:01.026,19.163,90,left,12000,24000,VH
9,39,right,True,2024-06-25 17:45:23.113,2024-06-25 17:45:48.309,25.196,92,right,12000,24000,VH
9,40,right,True,2024-06-25 17:46:10.397,2024-06-25 17:46:32.126,21.729,58,right,12000,24000,VH
9,41,right,False,2024-06-25 17:46:54.216,2024-06-25 17:47:19.426,25.21,44,left,12000,24000,VH
9,42,right,True,2024-06-25 17:47:41.516,2024-06-25 17:47:51.276,9.76,78,right,12000,24000,VH
9,43,left,True,2024-06-25 17:48:13.368,2024-06-25 17:48:38.776,25.408,48,left,12000,24000,VH
9,44,left,True,2024-06-25 17:49:00.864,2024-06-25 17:49:26.176,25.312,88,left,12000,24000,VH
9,45,right,True,2024-06-25 17:49:48.266,2024-06-25 17:50:05.310,17.044,16,right,12000,24000,VH
9,46,right,False,2024-06-25 17:50:27.399,2024-06-25 17:50:53.326,25.927,74,left,12000,24000,VH
9,47,left,False,2024-06-25 17:51:15.416,2024-06-25 17:51:40.676,25.26,42,right,12000,24000,VH
9,48,right,True,2024-06-25 17:52:02.764,2024-06-25 17:52:27.976,25.212,2,right,12000,24000,VH
9,49,right,False,2024-06-25 18:00:03.684,2024-06-25 18:00:28.912,25.228,45,left,12000,24000,V
9,50,left,True,2024-06-25 18:00:50.982,2024-06-25 18:01:02.911,11.929,77,left,12000,24000,V
9,51,left,False,2024-06-25 18:01:24.982,2024-06-25 18:01:50.377,25.395,23,right,12000,24000,V
9,52,right,False,2024-06-25 18:02:12.450,2024-06-25 18:02:37.611,25.161,41,left,12000,24000,V
9,53,left,True,2024-06-25 18:02:59.665,2024-06-25 18:03:24.728,25.063,87,left,12000,24000,V
9,54,left,False,2024-06-25 18:03:46.800,2024-06-25 18:04:07.894,21.094,35,right,12000,24000,V
9,55,left,True,2024-06-25 18:04:29.966,2024-06-25 18:04:41.261,11.295,83,left,12000,24000,V
9,56,left,True,2024-06-25 18:05:03.333,2024-06-25 18:05:28.644,25.311,37,left,12000,24000,V
9,57,right,True,2024-06-25 18:05:50.715,2024-06-25 18:06:15.811,25.096,95,right,12000,24000,V
9,58,left,True,2024-06-25 18:06:37.883,2024-06-25 18:07:02.861,24.978,17,left,12000,24000,V
9,59,right,True,2024-06-25 18:07:24.933,2024-06-25 18:07:39.628,14.695,57,right,12000,24000,V
9,60,left,True,2024-06-25 18:08:01.698,2024-06-25 18:08:20.678,18.98,71,left,12000,24000,V
9,61,left,False,2024-06-25 18:08:42.765,2024-06-25 18:09:08.078,25.313,96,right,12000,24000,VH
9,62,left,True,2024-06-25 18:09:30.165,2024-06-25 18:09:45.162,14.997,50,left,12000,24000,VH
9,63,right,True,2024-06-25 18:10:07.251,2024-06-25 18:10:25.061,17.81,26,right,12000,24000,VH
9,64,left,True,2024-06-25 18:10:47.149,2024-06-25 18:11:09.378,22.229,8,left,12000,24000,VH
9,65,left,True,2024-06-25 18:11:31.468,2024-06-25 18:11:56.728,25.26,40,left,12000,24000,VH
9,66,right,True,2024-06-25 18:12:18.820,2024-06-25 18:12:36.745,17.925,28,right,12000,24000,VH
9,67,left,True,2024-06-25 18:12:58.833,2024-06-25 18:13:14.662,15.829,24,left,12000,24000,VH
9,68,left,True,2024-06-25 18:13:36.750,2024-06-25 18:14:01.879,25.129,20,left,12000,24000,VH
9,69,left,False,2024-06-25 18:14:23.953,2024-06-25 18:14:48.495,24.542,34,right,12000,24000,VH
9,70,left,True,2024-06-25 18:15:10.583,2024-06-25 18:15:21.646,11.063,60,left,12000,24000,VH
9,71,left,False,2024-06-25 18:15:43.735,2024-06-25 18:16:05.729,21.994,46,right,12000,24000,VH
9,72,right,True,2024-06-25 18:16:27.801,2024-06-25 18:16:48.429,20.628,38,right,12000,24000,VH
9,73,left,True,2024-06-25 18:22:13.322,2024-06-25 18:22:35.113,21.791,63,left,12000,24000,V
9,74,left,False,2024-06-25 18:22:57.182,2024-06-25 18:23:22.246,25.064,61,right,12000,24000,V
9,75,right,True,2024-06-25 18:23:44.299,2024-06-25 18:24:09.413,25.114,3,right,12000,24000,V
9,76,right,False,2024-06-25 18:24:31.467,2024-06-25 18:24:56.596,25.129,75,left,12000,24000,V
9,77,right,True,2024-06-25 18:25:18.668,2024-06-25 18:25:31.413,12.745,13,right,12000,24000,V
9,78,right,True,2024-06-25 18:25:53.485,2024-06-25 18:26:12.430,18.945,11,right,12000,24000,V
9,79,left,True,2024-06-25 18:26:34.502,2024-06-25 18:26:45.480,10.978,81,left,12000,24000,V
9,80,right,True,2024-06-25 18:27:07.550,2024-06-25 18:27:31.413,23.863,85,right,12000,24000,V
9,81,left,False,2024-06-25 18:27:53.484,2024-06-25 18:28:18.863,25.379,93,right,12000,24000,V
9,82,right,False,2024-06-25 18:28:40.936,2024-06-25 18:29:04.430,23.494,31,left,12000,24000,V
9,83,right,True,2024-06-25 18:29:26.499,2024-06-25 18:29:42.047,15.548,91,right,12000,24000,V
9,84,right,True,2024-06-25 18:30:04.120,2024-06-25 18:30:29.280,25.16,43,right,12000,24000,V
9,85,left,True,2024-06-25 18:30:51.367,2024-06-25 18:31:06.247,14.88,94,left,12000,24000,VH
9,86,right,True,2024-06-25 18:31:28.335,2024-06-25 18:31:51.430,23.095,54,right,12000,24000,VH
9,87,right,True,2024-06-25 18:32:13.502,2024-06-25 18:32:29.680,16.178,84,right,12000,24000,VH
9,88,left,True,2024-06-25 18:32:51.752,2024-06-25 18:33:08.647,16.895,10,left,12000,24000,VH
9,89,left,False,2024-06-25 18:33:30.718,2024-06-25 18:33:55.997,25.279,68,right,12000,24000,VH
9,90,left,False,2024-06-25 18:34:18.069,2024-06-25 18:34:43.347,25.278,80,right,12000,24000,VH
9,91,right,False,2024-06-25 18:35:05.438,2024-06-25 18:35:29.780,24.342,36,left,12000,24000,VH
9,92,left,True,2024-06-25 18:35:51.869,2024-06-25 18:36:04.447,12.578,6,left,12000,24000,VH
9,93,left,False,2024-06-25 18:36:26.517,2024-06-25 18:36:51.797,25.28,62,right,12000,24000,VH
9,94,left,True,2024-06-25 18:37:13.885,2024-06-25 18:37:31.081,17.196,72,left,12000,24000,VH
9,95,left,False,2024-06-25 18:37:53.171,2024-06-25 18:38:14.464,21.293,22,right,12000,24000,VH
9,96,left,True,2024-06-25 18:38:36.535,2024-06-25 18:39:01.631,25.096,14,left,12000,24000,VH
10,1,right,True,2024-06-26 15:21:22.734,2024-06-26 15:21:30.398,7.664,9,right,12000,24000,VH
10,2,left,True,2024-06-26 15:21:52.484,2024-06-26 15:22:01.798,9.314,85,left,12000,24000,VH
10,3,right,True,2024-06-26 15:22:23.885,2024-06-26 15:22:35.164,11.279,55,right,12000,24000,VH
10,4,right,True,2024-06-26 15:22:57.254,2024-06-26 15:23:06.714,9.46,19,right,12000,24000,VH
10,5,right,False,2024-06-26 15:23:28.802,2024-06-26 15:23:37.115,8.313,91,left,12000,24000,VH
10,6,right,True,2024-06-26 15:23:59.202,2024-06-26 15:24:13.815,14.613,51,right,12000,24000,VH
10,7,right,True,2024-06-26 15:24:35.885,2024-06-26 15:24:50.031,14.146,89,right,12000,24000,VH
10,8,left,True,2024-06-26 15:25:12.106,2024-06-26 15:25:22.548,10.442,31,left,12000,24000,VH
10,9,right,True,2024-06-26 15:25:44.636,2024-06-26 15:25:47.548,2.912,15,right,12000,24000,VH
10,10,left,False,2024-06-26 15:26:09.636,2024-06-26 15:26:19.265,9.629,49,right,12000,24000,VH
10,11,left,True,2024-06-26 15:26:41.336,2024-06-26 15:26:52.782,11.446,17,left,12000,24000,VH
10,12,left,False,2024-06-26 15:27:14.873,2024-06-26 15:27:26.098,11.225,45,right,12000,24000,VH
10,13,right,True,2024-06-26 15:27:48.169,2024-06-26 15:27:58.498,10.329,60,right,12000,24000,V
10,14,left,True,2024-06-26 15:28:20.569,2024-06-26 15:28:29.165,8.596,2,left,12000,24000,V
10,15,right,True,2024-06-26 15:28:51.237,2024-06-26 15:28:54.515,3.278,76,right,12000,24000,V
10,16,left,False,2024-06-26 15:29:16.572,2024-06-26 15:29:26.815,10.243,22,right,12000,24000,V
10,17,right,False,2024-06-26 15:29:48.869,2024-06-26 15:29:53.848,4.979,92,left,12000,24000,V
10,18,right,True,2024-06-26 15:30:15.920,2024-06-26 15:30:25.048,9.128,20,right,12000,24000,V
10,19,right,True,2024-06-26 15:30:47.120,2024-06-26 15:30:53.249,6.129,16,right,12000,24000,V
10,20,left,True,2024-06-26 15:31:15.321,2024-06-26 15:31:27.749,12.428,44,left,12000,24000,V
10,21,right,True,2024-06-26 15:31:49.821,2024-06-26 15:31:55.415,5.594,26,right,12000,24000,V
10,22,right,True,2024-06-26 15:32:17.487,2024-06-26 15:32:35.399,17.912,74,right,12000,24000,V
10,23,left,True,2024-06-26 15:32:57.453,2024-06-26 15:33:10.882,13.429,66,left,12000,24000,V
10,24,left,False,2024-06-26 15:33:32.939,2024-06-26 15:33:42.899,9.96,42,right,12000,24000,V
10,25,right,True,2024-06-26 15:36:30.325,2024-06-26 15:36:39.516,9.191,95,right,12000,24000,VH
10,26,right,False,2024-06-26 15:37:01.602,2024-06-26 15:37:10.749,9.147,61,left,12000,24000,VH
10,27,right,True,2024-06-26 15:37:32.836,2024-06-26 15:37:46.466,13.63,1,right,12000,24000,VH
10,28,right,True,2024-06-26 15:38:08.537,2024-06-26 15:38:25.833,17.296,71,right,12000,24000,VH
10,29,left,True,2024-06-26 15:38:47.904,2024-06-26 15:39:01.999,14.095,57,left,12000,24000,VH
10,30,right,True,2024-06-26 15:39:24.070,2024-06-26 15:39:33.299,9.229,93,right,12000,24000,VH
10,31,right,True,2024-06-26 15:39:55.388,2024-06-26 15:40:11.849,16.461,65,right,12000,24000,VH
10,32,right,False,2024-06-26 15:40:33.936,2024-06-26 15:40:49.166,15.23,3,left,12000,24000,VH
10,33,left,False,2024-06-26 15:41:11.256,2024-06-26 15:41:27.283,16.027,37,right,12000,24000,VH
10,34,right,True,2024-06-26 15:41:49.371,2024-06-26 15:42:00.466,11.095,69,right,12000,24000,VH
10,35,left,True,2024-06-26 15:42:22.558,2024-06-26 15:42:33.716,11.158,33,left,12000,24000,VH
10,36,left,True,2024-06-26 15:42:55.803,2024-06-26 15:43:08.366,12.563,11,left,12000,24000,VH
10,37,left,False,2024-06-26 15:43:30.440,2024-06-26 15:43:40.550,10.11,34,right,12000,24000,V
10,38,left,True,2024-06-26 15:44:02.623,2024-06-26 15:44:13.700,11.077,46,left,12000,24000,V
10,39,right,False,2024-06-26 15:44:35.771,2024-06-26 15:44:47.683,11.912,56,left,12000,24000,V
10,40,right,True,2024-06-26 15:45:09.740,2024-06-26 15:45:16.950,7.21,32,right,12000,24000,V
10,41,left,True,2024-06-26 15:45:39.004,2024-06-26 15:45:49.133,10.129,86,left,12000,24000,V
10,42,left,False,2024-06-26 15:46:11.207,2024-06-26 15:46:20.633,9.426,48,right,12000,24000,V
10,43,right,False,2024-06-26 15:46:42.704,2024-06-26 15:46:53.050,10.346,90,left,12000,24000,V
10,44,left,True,2024-06-26 15:47:15.104,2024-06-26 15:47:27.684,12.58,88,left,12000,24000,V
10,45,right,True,2024-06-26 15:47:49.756,2024-06-26 15:48:02.684,12.928,78,right,12000,24000,V
10,46,left,True,2024-06-26 15:48:24.754,2024-06-26 15:48:35.950,11.196,70,left,12000,24000,V
10,47,right,False,2024-06-26 15:48:58.021,2024-06-26 15:49:16.400,18.379,68,left,12000,24000,V
10,48,right,True,2024-06-26 15:49:38.473,2024-06-26 15:49:50.367,11.894,82,right,12000,24000,V
10,49,left,True,2024-06-26 15:54:03.677,2024-06-26 15:54:13.535,9.858,73,left,12000,24000,VH
10,50,right,True,2024-06-26 15:54:35.605,2024-06-26 15:54:51.834,16.229,81,right,12000,24000,VH
10,51,left,True,2024-06-26 15:55:13.923,2024-06-26 15:55:30.468,16.545,23,left,12000,24000,VH
10,52,left,True,2024-06-26 15:55:52.556,2024-06-26 15:56:07.601,15.045,7,left,12000,24000,VH
10,53,right,True,2024-06-26 15:56:29.672,2024-06-26 15:56:40.518,10.846,53,right,12000,24000,VH
10,54,right,True,2024-06-26 15:57:02.605,2024-06-26 15:57:15.335,12.73,67,right,12000,24000,VH
10,55,left,True,2024-06-26 15:57:37.424,2024-06-26 15:57:51.218,13.794,13,left,12000,24000,VH
10,56,right,True,2024-06-26 15:58:13.305,2024-06-26 15:58:23.768,10.463,59,right,12000,24000,VH
10,57,right,True,2024-06-26 15:58:45.855,2024-06-26 15:58:57.385,11.53,63,right,12000,24000,VH
10,58,left,True,2024-06-26 15:59:19.474,2024-06-26 15:59:31.751,12.277,21,left,12000,24000,VH
10,59,left,True,2024-06-26 15:59:53.842,2024-06-26 16:00:03.601,9.759,41,left,12000,24000,VH
10,60,right,True,2024-06-26 16:00:25.690,2024-06-26 16:00:33.352,7.662,83,right,12000,24000,VH
10,61,left,True,2024-06-26 16:00:55.409,2024-06-26 16:01:07.618,12.209,40,left,12000,24000,V
10,62,right,True,2024-06-26 16:01:29.688,2024-06-26 16:01:40.718,11.03,58,right,12000,24000,V
10,63,right,True,2024-06-26 16:02:02.774,2024-06-26 16:02:11.518,8.744,84,right,12000,24000,V
10,64,right,False,2024-06-26 16:02:33.590,2024-06-26 16:02:50.468,16.878,10,left,12000,24000,V
10,65,left,True,2024-06-26 16:03:12.539,2024-06-26 16:03:27.502,14.963,80,left,12000,24000,V
10,66,right,True,2024-06-26 16:03:49.558,2024-06-26 16:04:01.535,11.977,38,right,12000,24000,V
10,67,left,True,2024-06-26 16:04:23.606,2024-06-26 16:04:36.935,13.329,8,left,12000,24000,V
10,68,left,True,2024-06-26 16:04:58.990,2024-06-26 16:05:14.135,15.145,62,left,12000,24000,V
10,69,right,True,2024-06-26 16:05:36.206,2024-06-26 16:05:51.152,14.946,64,right,12000,24000,V
10,70,left,True,2024-06-26 16:06:13.225,2024-06-26 16:06:37.085,23.86,28,left,12000,24000,V
10,71,right,False,2024-06-26 16:06:59.157,2024-06-26 16:07:08.235,9.078,52,left,12000,24000,V
10,72,left,False,2024-06-26 16:07:30.306,2024-06-26 16:07:46.936,16.63,96,right,12000,24000,V
10,73,left,True,2024-06-26 16:12:09.774,2024-06-26 16:12:21.986,12.212,79,left,12000,24000,VH
10,74,left,True,2024-06-26 16:12:44.076,2024-06-26 16:12:50.953,6.877,43,left,12000,24000,VH
10,75,right,True,2024-06-26 16:13:13.025,2024-06-26 16:13:24.369,11.344,39,right,12000,24000,VH
10,76,left,True,2024-06-26 16:13:46.456,2024-06-26 16:13:59.669,13.213,87,left,12000,24000,VH
10,77,left,True,2024-06-26 16:14:21.759,2024-06-26 16:14:33.653,11.894,27,left,12000,24000,VH
10,78,right,True,2024-06-26 16:14:55.725,2024-06-26 16:15:06.870,11.145,47,right,12000,24000,VH
10,79,left,True,2024-06-26 16:15:28.959,2024-06-26 16:15:39.570,10.611,29,left,12000,24000,VH
10,80,right,False,2024-06-26 16:16:01.658,2024-06-26 16:16:20.270,18.612,77,left,12000,24000,VH
10,81,right,True,2024-06-26 16:16:42.359,2024-06-26 16:16:55.670,13.311,75,right,12000,24000,VH
10,82,left,True,2024-06-26 16:17:17.759,2024-06-26 16:17:41.103,23.344,25,left,12000,24000,VH
10,83,left,True,2024-06-26 16:18:03.192,2024-06-26 16:18:11.803,8.611,5,left,12000,24000,VH
10,84,right,True,2024-06-26 16:18:33.892,2024-06-26 16:18:44.103,10.211,35,right,12000,24000,VH
10,85,left,True,2024-06-26 16:19:06.174,2024-06-26 16:19:17.337,11.163,72,left,12000,24000,V
10,86,left,True,2024-06-26 16:19:39.407,2024-06-26 16:19:47.070,7.663,6,left,12000,24000,V
10,87,right,True,2024-06-26 16:20:09.141,2024-06-26 16:20:19.587,10.446,94,right,12000,24000,V
10,88,right,True,2024-06-26 16:20:41.640,2024-06-26 16:20:48.787,7.147,50,right,12000,24000,V
10,89,left,True,2024-06-26 16:21:10.859,2024-06-26 16:21:19.020,8.161,18,left,12000,24000,V
10,90,right,False,2024-06-26 16:21:41.093,2024-06-26 16:21:51.587,10.494,36,left,12000,24000,V
10,91,right,True,2024-06-26 16:22:13.658,2024-06-26 16:22:23.570,9.912,14,right,12000,24000,V
10,92,left,True,2024-06-26 16:22:45.642,2024-06-26 16:22:53.704,8.062,12,left,12000,24000,V
10,93,right,True,2024-06-26 16:23:15.776,2024-06-26 16:23:31.420,15.644,24,right,12000,24000,V
10,94,left,True,2024-06-26 16:23:53.492,2024-06-26 16:24:04.437,10.945,4,left,12000,24000,V
10,95,right,True,2024-06-26 16:24:26.510,2024-06-26 16:24:41.754,15.244,30,right,12000,24000,V
10,96,left,True,2024-06-26 16:25:03.825,2024-06-26 16:25:20.121,16.296,54,left,12000,24000,V
11,1,right,False,2024-06-26 18:42:43.253,2024-06-26 18:43:05.360,22.107,23,left,12000,24000,V
11,2,right,True,2024-06-26 18:43:27.432,2024-06-26 18:43:53.359,25.927,35,right,12000,24000,V
11,3,right,False,2024-06-26 18:44:15.430,2024-06-26 18:44:26.010,10.58,89,left,12000,24000,V
11,4,right,True,2024-06-26 18:44:48.064,2024-06-26 18:44:53.593,5.529,77,right,12000,24000,V
11,5,right,True,2024-06-26 18:45:15.649,2024-06-26 18:45:23.826,8.177,79,right,12000,24000,V
11,6,right,False,2024-06-26 18:45:45.897,2024-06-26 18:45:54.660,8.763,67,left,12000,24000,V
11,7,right,True,2024-06-26 18:46:16.733,2024-06-26 18:46:23.360,6.627,45,right,12000,24000,V
11,8,right,False,2024-06-26 18:46:45.431,2024-06-26 18:46:58.093,12.662,61,left,12000,24000,V
11,9,right,True,2024-06-26 18:47:20.164,2024-06-26 18:47:32.227,12.063,81,right,12000,24000,V
11,10,left,True,2024-06-26 18:47:54.299,2024-06-26 18:48:01.310,7.011,41,left,12000,24000,V
11,11,right,True,2024-06-26 18:48:23.382,2024-06-26 18:48:30.410,7.028,55,right,12000,24000,V
11,12,right,True,2024-06-26 18:48:52.481,2024-06-26 18:49:02.844,10.363,9,right,12000,24000,V
11,13,left,True,2024-06-26 18:49:24.930,2024-06-26 18:49:36.094,11.164,88,left,12000,24000,VH
11,14,left,False,2024-06-26 18:49:58.183,2024-06-26 18:50:08.810,10.627,22,right,12000,24000,VH
11,15,left,False,2024-06-26 18:50:30.882,2024-06-26 18:50:39.310,8.428,10,right,12000,24000,VH
11,16,right,False,2024-06-26 18:51:01.399,2024-06-26 18:51:05.327,3.928,14,left,12000,24000,VH
11,17,left,True,2024-06-26 18:51:27.415,2024-06-26 18:51:36.244,8.829,72,left,12000,24000,VH
11,18,right,True,2024-06-26 18:51:58.334,2024-06-26 18:52:03.977,5.643,48,right,12000,24000,VH
11,19,left,True,2024-06-26 18:52:26.065,2024-06-26 18:52:34.744,8.679,94,left,12000,24000,VH
11,20,left,True,2024-06-26 18:52:56.814,2024-06-26 18:53:05.627,8.813,4,left,12000,24000,VH
11,21,right,True,2024-06-26 18:53:27.716,2024-06-26 18:53:36.944,9.228,24,right,12000,24000,VH
11,22,left,False,2024-06-26 18:53:59.032,2024-06-26 18:54:19.461,20.429,90,right,12000,24000,VH
11,23,left,True,2024-06-26 18:54:41.549,2024-06-26 18:54:52.078,10.529,54,left,12000,24000,VH
11,24,right,True,2024-06-26 18:55:14.166,2024-06-26 18:55:21.078,6.912,52,right,12000,24000,VH
11,25,right,False,2024-06-26 19:03:02.922,2024-06-26 19:03:10.346,7.424,1,left,12000,24000,V
11,26,right,True,2024-06-26 19:03:32.398,2024-06-26 19:03:53.512,21.114,85,right,12000,24000,V
11,27,right,True,2024-06-26 19:04:15.583,2024-06-26 19:04:24.195,8.612,5,right,12000,24000,V
11,28,left,True,2024-06-26 19:04:46.266,2024-06-26 19:04:57.145,10.879,69,left,12000,24000,V
11,29,left,True,2024-06-26 19:05:19.218,2024-06-26 19:05:27.612,8.394,17,left,12000,24000,V
11,30,right,True,2024-06-26 19:05:49.683,2024-06-26 19:05:55.812,6.129,51,right,12000,24000,V
11,31,right,True,2024-06-26 19:06:17.883,2024-06-26 19:06:26.712,8.829,57,right,12000,24000,V
11,32,left,True,2024-06-26 19:06:48.783,2024-06-26 19:06:55.779,6.996,7,left,12000,24000,V
11,33,right,True,2024-06-26 19:07:17.837,2024-06-26 19:07:24.246,6.409,31,right,12000,24000,V
11,34,left,False,2024-06-26 19:07:46.317,2024-06-26 19:07:57.213,10.896,63,right,12000,24000,V
11,35,left,True,2024-06-26 19:08:19.285,2024-06-26 19:08:36.696,17.411,39,left,12000,24000,V
11,36,right,True,2024-06-26 19:08:58.768,2024-06-26 19:09:06.196,7.428,75,right,12000,24000,V
11,37,right,True,2024-06-26 19:09:28.283,2024-06-26 19:09:33.213,4.93,68,right,12000,24000,VH
11,38,left,True,2024-06-26 19:09:55.301,2024-06-26 19:10:02.296,6.995,70,left,12000,24000,VH
11,39,right,True,2024-06-26 19:10:24.366,2024-06-26 19:10:31.896,7.53,66,right,12000,24000,VH
11,40,left,True,2024-06-26 19:10:53.985,2024-06-26 19:11:00.980,6.995,78,left,12000,24000,VH
11,41,left,True,2024-06-26 19:11:23.067,2024-06-26 19:11:29.780,6.713,50,left,12000,24000,VH
11,42,right,True,2024-06-26 19:11:51.851,2024-06-26 19:12:04.413,12.562,96,right,12000,24000,VH
11,43,right,False,2024-06-26 19:12:26.500,2024-06-26 19:12:42.947,16.447,92,left,12000,24000,VH
11,44,left,True,2024-06-26 19:13:05.019,2024-06-26 19:13:12.463,7.444,20,left,12000,24000,VH
11,45,right,True,2024-06-26 19:13:34.551,2024-06-26 19:13:37.797,3.246,74,right,12000,24000,VH
11,46,left,True,2024-06-26 19:13:59.868,2024-06-26 19:14:06.297,6.429,80,left,12000,24000,VH
11,47,left,True,2024-06-26 19:14:28.384,2024-06-26 19:14:34.530,6.146,6,left,12000,24000,VH
11,48,left,False,2024-06-26 19:14:56.620,2024-06-26 19:15:08.480,11.86,36,right,12000,24000,VH
11,49,left,True,2024-06-26 19:20:59.525,2024-06-26 19:21:05.815,6.29,38,left,12000,24000,VH
11,50,left,True,2024-06-26 19:21:27.903,2024-06-26 19:21:33.214,5.311,44,left,12000,24000,VH
11,51,right,True,2024-06-26 19:21:55.303,2024-06-26 19:21:59.364,4.061,16,right,12000,24000,VH
11,52,left,True,2024-06-26 19:22:21.451,2024-06-26 19:22:28.048,6.597,8,left,12000,24000,VH
11,53,left,True,2024-06-26 19:22:50.121,2024-06-26 19:22:57.448,7.327,32,left,12000,24000,VH
11,54,right,True,2024-06-26 19:23:19.537,2024-06-26 19:23:22.631,3.094,84,right,12000,24000,VH
11,55,left,True,2024-06-26 19:23:44.705,2024-06-26 19:23:54.331,9.626,42,left,12000,24000,VH
11,56,left,True,2024-06-26 19:24:16.421,2024-06-26 19:24:23.731,7.31,26,left,12000,24000,VH
11,57,right,True,2024-06-26 19:24:45.818,2024-06-26 19:24:52.465,6.647,2,right,12000,24000,VH
11,58,left,True,2024-06-26 19:25:14.555,2024-06-26 19:25:22.848,8.293,28,left,12000,24000,VH
11,59,left,True,2024-06-26 19:25:44.936,2024-06-26 19:25:51.165,6.229,64,left,12000,24000,VH
11,60,right,True,2024-06-26 19:26:13.235,2024-06-26 19:26:18.365,5.13,60,right,12000,24000,VH
11,61,left,True,2024-06-26 19:26:40.434,2024-06-26 19:26:47.282,6.848,53,left,12000,24000,V
11,62,right,False,2024-06-26 19:27:09.352,2024-06-26 19:27:17.182,7.83,91,left,12000,24000,V
11,63,right,True,2024-06-26 19:27:39.253,2024-06-26 19:27:43.998,4.745,73,right,12000,24000,V
11,64,left,True,2024-06-26 19:28:06.068,2024-06-26 19:28:14.698,8.63,95,left,12000,24000,V
11,65,right,True,2024-06-26 19:28:36.770,2024-06-26 19:28:45.465,8.695,15,right,12000,24000,V
11,66,right,True,2024-06-26 19:29:07.537,2024-06-26 19:29:17.115,9.578,19,right,12000,24000,V
11,67,left,True,2024-06-26 19:29:39.185,2024-06-26 19:29:47.199,8.014,49,left,12000,24000,V
11,68,right,True,2024-06-26 19:30:09.255,2024-06-26 19:30:15.682,6.427,33,right,12000,24000,V
11,69,right,True,2024-06-26 19:30:37.756,2024-06-26 19:30:43.632,5.876,43,right,12000,24000,V
11,70,right,False,2024-06-26 19:31:05.704,2024-06-26 19:31:11.982,6.278,37,left,12000,24000,V
11,71,right,True,2024-06-26 19:31:34.055,2024-06-26 19:31:37.032,2.977,47,right,12000,24000,V
11,72,left,True,2024-06-26 19:31:59.105,2024-06-26 19:32:04.766,5.661,13,left,12000,24000,V
11,73,right,True,2024-06-26 19:41:35.210,2024-06-26 19:41:43.184,7.974,27,right,12000,24000,V
11,74,left,True,2024-06-26 19:42:05.255,2024-06-26 19:42:12.967,7.712,21,left,12000,24000,V
11,75,right,True,2024-06-26 19:42:35.020,2024-06-26 19:42:44.100,9.08,71,right,12000,24000,V
11,76,right,False,2024-06-26 19:43:06.170,2024-06-26 19:43:10.017,3.847,59,left,12000,24000,V
11,77,right,True,2024-06-26 19:43:32.089,2024-06-26 19:43:35.067,2.978,83,right,12000,24000,V
11,78,left,True,2024-06-26 19:43:57.138,2024-06-26 19:44:04.367,7.229,93,left,12000,24000,V
11,79,right,True,2024-06-26 19:44:26.421,2024-06-26 19:44:32.751,6.33,3,right,12000,24000,V
11,80,right,True,2024-06-26 19:44:54.821,2024-06-26 19:45:02.551,7.73,65,right,12000,24000,V
11,81,left,True,2024-06-26 19:45:24.624,2024-06-26 19:45:32.834,8.21,29,left,12000,24000,V
11,82,right,True,2024-06-26 19:45:54.907,2024-06-26 19:46:01.151,6.244,25,right,12000,24000,V
11,83,right,False,2024-06-26 19:46:23.221,2024-06-26 19:46:32.151,8.93,87,left,12000,24000,V
11,84,right,True,2024-06-26 19:46:54.222,2024-06-26 19:47:00.184,5.962,11,right,12000,24000,V
11,85,right,True,2024-06-26 19:47:22.257,2024-06-26 19:47:28.134,5.877,82,right,12000,24000,VH
11,86,left,True,2024-06-26 19:47:50.222,2024-06-26 19:48:02.351,12.129,62,left,12000,24000,VH
11,87,right,True,2024-06-26 19:48:24.439,2024-06-26 19:48:31.551,7.112,86,right,12000,24000,VH
11,88,right,True,2024-06-26 19:48:53.640,2024-06-26 19:48:59.168,5.528,46,right,12000,24000,VH
11,89,left,True,2024-06-26 19:49:21.256,2024-06-26 19:49:28.001,6.745,12,left,12000,24000,VH
11,90,right,True,2024-06-26 19:49:50.089,2024-06-26 19:49:59.351,9.262,58,right,12000,24000,VH
11,91,left,True,2024-06-26 19:50:21.441,2024-06-26 19:50:28.068,6.627,40,left,12000,24000,VH
11,92,right,True,2024-06-26 19:50:50.158,2024-06-26 19:50:55.418,5.26,30,right,12000,24000,VH
11,93,right,True,2024-06-26 19:51:17.507,2024-06-26 19:51:22.968,5.461,76,right,12000,24000,VH
11,94,right,False,2024-06-26 19:51:45.055,2024-06-26 19:51:54.052,8.997,56,left,12000,24000,VH
11,95,left,True,2024-06-26 19:52:16.144,2024-06-26 19:52:23.502,7.358,34,left,12000,24000,VH
11,96,right,False,2024-06-26 19:52:45.591,2024-06-26 19:52:51.285,5.694,18,left,12000,24000,VH
12,1,left,False,2024-06-27 10:22:43.847,2024-06-27 10:22:53.087,9.24,14,right,12000,24000,V
12,2,right,True,2024-06-27 10:23:15.140,2024-06-27 10:23:25.670,10.53,68,right,12000,24000,V
12,3,left,True,2024-06-27 10:23:47.744,2024-06-27 10:23:59.420,11.676,30,left,12000,24000,V
12,4,left,False,2024-06-27 10:24:21.491,2024-06-27 10:24:32.954,11.463,92,right,12000,24000,V
12,5,right,True,2024-06-27 10:24:55.008,2024-06-27 10:25:05.920,10.912,94,right,12000,24000,V
12,6,left,True,2024-06-27 10:25:27.994,2024-06-27 10:25:41.454,13.46,82,left,12000,24000,V
12,7,right,True,2024-06-27 10:26:03.526,2024-06-27 10:26:14.404,10.878,22,right,12000,24000,V
12,8,right,True,2024-06-27 10:26:36.474,2024-06-27 10:26:49.370,12.896,66,right,12000,24000,V
12,9,right,False,2024-06-27 10:27:11.442,2024-06-27 10:27:18.504,7.062,10,left,12000,24000,V
12,10,right,True,2024-06-27 10:27:40.576,2024-06-27 10:27:52.587,12.011,78,right,12000,24000,V
12,11,right,True,2024-06-27 10:28:14.661,2024-06-27 10:28:30.637,15.976,46,right,12000,24000,V
12,12,left,True,2024-06-27 10:28:52.708,2024-06-27 10:29:06.171,13.463,4,left,12000,24000,V
12,13,left,True,2024-06-27 10:29:28.243,2024-06-27 10:29:35.721,7.478,37,left,12000,24000,VH
12,14,right,True,2024-06-27 10:29:57.808,2024-06-27 10:30:13.487,15.679,57,right,12000,24000,VH
12,15,left,True,2024-06-27 10:30:35.575,2024-06-27 10:30:47.954,12.379,87,left,12000,24000,VH
